,MaxAccX,MinAccX,1stQuartileAccX,Delta1stQuartileMinAccX,2ndQuartileAccX,3rdQuartileAccX,Delta3rdQuartileMaxAccX,DeltaMinMaxAccX,StdDevAccX,MaxDiffAccX,MinDiffAccX,1stQuartileDiffAccX,Delta1stQuartileMinDiffAccX,2ndQuartileDiffAccX,3rdQuartileDiffAccX,Delta3rdQuartileMaxDiffAccX,DeltaMinMaxDiffAccX,StdDevDiffAccX,MaxAccY,MinAccY,1stQuartileAccY,Delta1stQuartileMinAccY,2ndQuartileAccY,3rdQuartileAccY,Delta3rdQuartileMaxAccY,DeltaMinMaxAccY,StdDevAccY,MaxDiffAccY,MinDiffAccY,1stQuartileDiffAccY,Delta1stQuartileMinDiffAccY,2ndQuartileDiffAccY,3rdQuartileDiffAccY,Delta3rdQuartileMaxDiffAccY,DeltaMinMaxDiffAccY,StdDevDiffAccY,MaxAccZ,MinAccZ,1stQuartileAccZ,Delta1stQuartileMinAccZ,2ndQuartileAccZ,3rdQuartileAccZ,Delta3rdQuartileMaxAccZ,DeltaMinMaxAccZ,StdDevAccZ,MaxDiffAccZ,MinDiffAccZ,1stQuartileDiffAccZ,Delta1stQuartileMinDiffAccZ,2ndQuartileDiffAccZ,3rdQuartileDiffAccZ,Delta3rdQuartileMaxDiffAccZ,DeltaMinMaxDiffAccZ,StdDevDiffAccZ,SourceFile,Category
130,0.06584054976701736,-0.363918662071228,-0.17956513166427612,0.1843535304069519,-0.05207388661801815,0.0011971008498221636,0.0646434489171952,0.4297592118382454,0.11527446214400437,0.4141968972980976,-0.40222588926553726,-0.13168109697289765,0.2705447922926396,-0.0059855058789253235,0.14065935305552557,0.27353754424257204,0.8164227865636349,0.19995198960391855,0.5303156971931458,0.02274491637945175,0.17836803197860718,0.15562311559915543,0.2885012924671173,0.3363853394985199,0.19393035769462585,0.507570780813694,0.0992036367390266,0.34835634008049965,-0.3663128651678562,-0.12090718001127243,0.24540568515658379,-0.0005985498428344727,0.1304839923977852,0.21787234768271446,0.7146692052483559,0.17057640324345144,9.862914085388184,9.434351921081543,9.591770648956299,0.15741872787475586,9.679158687591553,9.745897054672241,0.11701703071594238,0.4285621643066406,0.10518212740497707,0.39743804931640625,-0.4010286331176758,-0.06135153770446777,0.339677095413208,-0.007781505584716797,0.06254839897155762,0.33488965034484863,0.798466682434082,0.16151514168252645,./Data/Curated/LightLoad/Experiment11.csv,LightLoad
100,0.7601590156555176,-0.8343793153762817,-0.3480570614337921,0.4863222539424896,-0.08140285685658455,0.16071078553795815,0.5994482301175594,1.5945383310317993,0.36574599524342477,1.419761598110199,-0.842758983373642,-0.4201824082992971,0.4225765750743449,-0.11671733856201172,0.30436286865733564,1.1153987294528633,2.262520581483841,0.5407724476729446,0.5554547905921936,-0.004788403399288654,0.19722236692905426,0.20201077032834291,0.28311434388160706,0.34506431221961975,0.21039047837257385,0.5602431939914823,0.1170811623663519,0.438138909637928,-0.37349545606411994,-0.1595136821269989,0.21398177393712103,0.001795649528503418,0.13527238368988037,0.30286652594804764,0.8116343657020479,0.18248936373572822,10.11669921875,9.281123161315918,9.569623947143555,0.2885007858276367,9.688137531280518,9.787795782089233,0.3289034366607666,0.835576057434082,0.1613970721686898,0.42975902557373047,-0.602142333984375,-0.17627310752868652,0.4258692264556885,0.011971473693847656,0.18944144248962402,0.24031758308410645,1.0319013595581055,0.22203284272800541,./Data/Curated/HeavyLoad/Experiment41.csv,HeavyLoad
117,0.7122750282287598,-0.9576807022094727,-0.456095427274704,0.5015852749347687,-0.14844051003456116,0.2935889959335327,0.41868603229522705,1.6699557304382324,0.43127531067061337,1.1803414225578308,-1.4125789999961853,-0.47644612565636635,0.936132874339819,0.06045358628034592,0.5183446556329727,0.6619967669248581,2.592920422554016,0.6175559237336555,0.5985504388809204,-0.12330138683319092,0.1496376097202301,0.272938996553421,0.2950853705406189,0.4183867573738098,0.1801636815071106,0.7218518257141113,0.16946307652569956,0.5650316020473838,-0.6643909811973572,-0.1726817972958088,0.4917091839015484,0.01197102665901184,0.16968905366957188,0.3953425483778119,1.229422583244741,0.25415500245991995,10.24239444732666,9.066842079162598,9.511863946914673,0.4450218677520752,9.68694019317627,9.84226369857788,0.4001307487487793,1.1755523681640625,0.23410109636688284,0.6703767776489258,-0.8798694610595703,-0.2151789665222168,0.6646904945373535,0.02454090118408203,0.23343467712402344,0.43694210052490234,1.550246238708496,0.31953690690818914,./Data/Curated/HeavyLoad/Experiment58.csv,HeavyLoad
28,-0.07781155407428741,-0.10654197633266449,-0.0933738648891449,0.013168111443519592,-0.08978256583213806,-0.08738835901021957,0.00957680493593216,0.028730422258377075,0.004965894015156899,0.019153617322444916,-0.01795651763677597,-0.004788406193256378,0.013168111443519592,0.0,0.004788406193256378,0.014365211129188538,0.037110134959220886,0.006962901032773932,0.16160862147808075,0.1388636976480484,0.14844051003456116,0.009576812386512756,0.15083470940589905,0.15442600846290588,0.007182613015174866,0.02274492383003235,0.004263035921972444,0.017956510186195374,-0.016759410500526428,-0.003591299057006836,0.013168111443519592,0.0,0.003591299057006836,0.014365211129188538,0.0347159206867218,0.00584124011960651,9.710882186889648,9.676166534423828,9.68694019317627,0.010773658752441406,9.690531730651855,9.694122314453125,0.016759872436523438,0.03471565246582031,0.005832754541269542,0.021547317504882812,-0.031124114990234375,-0.005985260009765625,0.02513885498046875,0.0,0.005087614059448242,0.01645970344543457,0.05267143249511719,0.008323538284911164,./Data/Curated/Off/Experiment29.csv,Off
75,0.7912836670875549,-1.0414776802062988,-0.3917512595653534,0.6497264206409454,-0.076015904545784,0.24510639905929565,0.5461772680282593,1.8327613472938538,0.416269562782713,1.7310078144073486,-1.521515130996704,-0.5201403042301536,1.0013748267665505,0.04249709099531174,0.48692076839506626,1.2440870460122824,3.2525229454040527,0.6852888726224259,0.7230489253997803,-0.05386953800916672,0.14425064623355865,0.19812018424272537,0.25019407272338867,0.37648820877075195,0.3465607166290283,0.776918463408947,0.18371151167612076,0.6093243360519409,-0.6811504103243351,-0.17866730690002441,0.5024831034243107,0.017956502735614777,0.19901800528168678,0.41030633077025414,1.290474746376276,0.2747058953138033,10.123882293701172,9.209297180175781,9.549871921539307,0.3405747413635254,9.682750225067139,9.806650161743164,0.3172321319580078,0.9145851135253906,0.18150535240613785,0.6069297790527344,-0.6919240951538086,-0.18375468254089355,0.508169412612915,-0.022745132446289062,0.20111298561096191,0.40581679344177246,1.298853874206543,0.26535589773260365,./Data/Curated/HeavyLoad/Experiment16.csv,HeavyLoad
95,0.7960720658302307,-0.7050924301147461,-0.34087446331977844,0.36421796679496765,-0.08379705995321274,0.15083470940589905,0.6452373564243317,1.5011644959449768,0.36781571610133795,1.359906554222107,-0.9624690860509872,-0.4085106812417507,0.5539584048092365,-0.10893617570400238,0.30196866393089294,1.057937890291214,2.322375640273094,0.5368811638811203,0.608127236366272,-0.0035913025494664907,0.21428105235099792,0.21787235490046442,0.2795230448246002,0.3486556112766266,0.2594716250896454,0.6117185389157385,0.117522146307841,0.3926490694284439,-0.4453215152025223,-0.14245501160621643,0.30286650359630585,0.001795649528503418,0.12120646238327026,0.27144260704517365,0.8379705846309662,0.17753900283023408,10.125079154968262,9.23563289642334,9.595661401748657,0.3600285053253174,9.696516990661621,9.784503698348999,0.3405754566192627,0.8894462585449219,0.16267421338371774,0.4704608917236328,-0.5829877853393555,-0.16190791130065918,0.4210798740386963,0.022146224975585938,0.17088651657104492,0.2995743751525879,1.0534486770629883,0.21972826337281148,./Data/Curated/HeavyLoad/Experiment36.csv,HeavyLoad
34,-0.07422025501728058,-0.10534487664699554,-0.0933738648891449,0.011971011757850647,-0.08978256583213806,-0.08738835901021957,0.013168103992938995,0.031124621629714966,0.005229419544174786,0.02274491637945175,-0.02035071700811386,-0.0059854984283447266,0.014365218579769135,0.0,0.005087679252028465,0.017657237127423286,0.04309563338756561,0.007804255149154337,0.16639702022075653,0.14006079733371735,0.14933833479881287,0.00927753746509552,0.152031809091568,0.15442600846290588,0.011971011757850647,0.026336222887039185,0.004527168396728039,0.01915360987186432,-0.017956510186195374,-0.004788398742675781,0.013168111443519592,0.0,0.004788398742675781,0.014365211129188538,0.03711012005805969,0.006570724794234449,9.71926212310791,9.66419506072998,9.68694019317627,0.022745132446289062,9.691728591918945,9.696516990661621,0.022745132446289062,0.05506706237792969,0.0075325532609600105,0.039504051208496094,-0.050278663635253906,-0.005986213684082031,0.044292449951171875,0.0,0.007182121276855469,0.032321929931640625,0.08978271484375,0.011277365990655652,./Data/Curated/Off/Experiment35.csv,Off
116,0.7350199222564697,-0.9445125460624695,-0.4692635238170624,0.4752490222454071,-0.12509704381227493,0.3082534670829773,0.42676645517349243,1.6795324683189392,0.43345920756477735,1.2473790645599365,-1.4449006915092468,-0.4776432446669787,0.9672574468422681,0.08858546614646912,0.5129577331244946,0.734421331435442,2.6922797560691833,0.6198383088537667,0.608127236366272,-0.1280897855758667,0.15652093291282654,0.28461071848869324,0.30286651849746704,0.42377370595932007,0.1843535304069519,0.7362170219421387,0.17448261515005453,0.623689565807581,-0.6392518803477287,-0.1861492022871971,0.4531026780605316,0.026336204260587692,0.16759412502869964,0.4560954407788813,1.2629414461553097,0.2647297079632463,10.200496673583984,9.135076522827148,9.503484010696411,0.3684074878692627,9.67616605758667,9.850044965744019,0.3504517078399658,1.065420150756836,0.23458568332133306,0.7098808288574219,-0.8535327911376953,-0.24091696739196777,0.6126158237457275,0.022745132446289062,0.24331068992614746,0.4665701389312744,1.5634136199951172,0.32390784833160835,./Data/Curated/HeavyLoad/Experiment57.csv,HeavyLoad
139,0.07661445438861847,-0.29209262132644653,-0.15831658244132996,0.13377603888511658,-0.0802057534456253,-0.011671732878312469,0.08828618726693094,0.368707075715065,0.09153658136982205,0.33758245408535004,-0.343567930161953,-0.12330138951074332,0.22026654065120965,0.0023941993713378906,0.1286883419379592,0.20889411214739084,0.681150384247303,0.16263838361647912,0.5817909836769104,0.06823474913835526,0.23672668635845184,0.1684919372200966,0.2777273952960968,0.3100491166114807,0.2717418670654297,0.5135562345385551,0.05964422579925017,0.28371288627386093,-0.3016693890094757,-0.0421978160738945,0.2594715729355812,-0.0023941993713378906,0.045789092779159546,0.23792379349470139,0.5853822752833366,0.10403254474649491,9.819818496704102,9.475052833557129,9.635165452957153,0.16011261940002441,9.673173427581787,9.706093788146973,0.1137247085571289,0.34476566314697266,0.06437117140699275,0.2932891845703125,-0.25977039337158203,-0.06943154335021973,0.1903388500213623,0.0,0.06703758239746094,0.22625160217285156,0.5530595779418945,0.10624326939470727,./Data/Curated/LightLoad/Experiment20.csv,LightLoad
62,0.9804255962371826,-1.1863269805908203,-0.5249287486076355,0.6613982319831848,-0.07481880486011505,0.3908534348011017,0.5895721614360809,2.166752576828003,0.5462918673906008,1.519120991230011,-1.6424223184585571,-0.8047510669566691,0.837671251501888,-0.004788406193256378,0.8873509848490357,0.6317700063809752,3.161543309688568,0.9204944759919416,0.6607996821403503,-0.10654197633266449,0.1792658530175686,0.2858078293502331,0.2968810200691223,0.37828385829925537,0.28251582384109497,0.7673416584730148,0.1505691004237642,0.557849008589983,-0.5674258172512054,-0.16879120469093323,0.3986346125602722,-0.03711012005805969,0.17866729944944382,0.37918170914053917,1.1252748258411884,0.23997581235693266,10.006566047668457,9.306262016296387,9.586084604263306,0.27982258796691895,9.671976566314697,9.76744532585144,0.2391207218170166,0.7003040313720703,0.12900849694071084,0.5363016128540039,-0.4967966079711914,-0.1283891201019287,0.3684074878692627,0.0,0.12479758262634277,0.41150403022766113,1.0330982208251953,0.17895552181467464,./Data/Curated/HeavyLoad/Experiment3.csv,HeavyLoad
160,1.1264718770980835,-1.2054805755615234,-0.5330091714859009,0.6724714040756226,-0.0802057571709156,0.3354875147342682,0.7909843623638153,2.331952452659607,0.5368620189813902,1.6543934047222137,-1.7202339172363281,-0.7583633922040462,0.9618705250322819,-0.047884032130241394,0.783502496778965,0.8708909079432487,3.374627321958542,0.8547425443216459,0.6488286852836609,-0.08379705995321274,0.14814123511314392,0.23193829506635666,0.28131869435310364,0.39624038338661194,0.25258830189704895,0.7326257452368736,0.16544670003109085,0.4525041151791811,-0.6607996933162212,-0.16340426914393902,0.4973954241722822,0.040102871134877205,0.1628057099878788,0.2896984051913023,1.1133038084954023,0.22414011058124664,10.122684478759766,9.35893440246582,9.574113130569458,0.2151787281036377,9.674370288848877,9.769539833068848,0.35314464569091797,0.7637500762939453,0.13638330242767605,0.4967975616455078,-0.5530605316162109,-0.12599539756774902,0.4270651340484619,0.023941993713378906,0.15203189849853516,0.34476566314697266,1.0498580932617188,0.19099690594852198,./Data/Curated/LightLoad/Experiment41.csv,LightLoad
78,0.7529764175415039,-1.0414776802062988,-0.35344403982162476,0.6880336403846741,-0.058657942339777946,0.24121582508087158,0.5117605924606323,1.7944540977478027,0.4120997669048864,1.6927005648612976,-1.5921441316604614,-0.49380410369485617,1.0983400279656053,-0.06643910333514214,0.47973816748708487,1.2129623973742127,3.284844696521759,0.6755367964375945,0.7170634269714355,-0.0586579404771328,0.14814123511314392,0.20679917559027672,0.25438392162323,0.39564183354377747,0.3214215934276581,0.7757213674485683,0.17983811455826823,0.6392518728971481,-0.7122750245034695,-0.20021510869264603,0.5120599158108234,0.02693476527929306,0.2202665307559073,0.41898534214124084,1.3515268974006176,0.2716820346647499,10.129867553710938,9.209297180175781,9.552865028381348,0.3435678482055664,9.679757118225098,9.809344053268433,0.3205235004425049,0.9205703735351562,0.17668241595578882,0.6165075302124023,-0.5853824615478516,-0.18465304374694824,0.4007294178009033,-0.008977890014648438,0.20470428466796875,0.4118032455444336,1.201889991760254,0.2553626280757624,./Data/Curated/HeavyLoad/Experiment19.csv,HeavyLoad
46,-0.07541735470294952,-0.10175357013940811,-0.0933738648891449,0.008379705250263214,-0.08978256583213806,-0.08619125932455063,0.010773904621601105,0.026336215436458588,0.004782923567856533,0.021547816693782806,-0.02274491637945175,-0.004788398742675781,0.01795651763677597,0.0,0.0047884006053209305,0.016759416088461876,0.04429273307323456,0.00662843041968029,0.16639702022075653,0.1412578970193863,0.152031809091568,0.010773912072181702,0.15442600846290588,0.15682020783424377,0.009576812386512756,0.02513912320137024,0.004182536443171295,0.015562310814857483,-0.020350724458694458,-0.003591299057006836,0.016759425401687622,0.0,0.003591299057006836,0.011971011757850647,0.03591303527355194,0.005880715722454261,9.72285270690918,9.672574996948242,9.68813705444336,0.015562057495117188,9.691728591918945,9.694122314453125,0.028730392456054688,0.0502777099609375,0.005789377940697411,0.02992725372314453,-0.031124114990234375,-0.004788398742675781,0.026335716247558594,0.0,0.004788398742675781,0.02513885498046875,0.061051368713378906,0.007756703514749006,./Data/Curated/Off/Experiment47.csv,Off
20,-0.07541735470294952,-0.10175357013940811,-0.09217676520347595,0.00957680493593216,-0.08978256583213806,-0.08619125932455063,0.010773904621601105,0.026336215436458588,0.004963984236884448,0.019153617322444916,-0.01795651763677597,-0.004788398742675781,0.01316811889410019,0.0,0.004788406193256378,0.014365211129188538,0.037110134959220886,0.006884649861286392,0.16160862147808075,0.13407529890537262,0.14365209639072418,0.009576797485351562,0.1472434103488922,0.15083470940589905,0.010773912072181702,0.02753332257270813,0.004475131405670846,0.015562310814857483,-0.017956510186195374,-0.00359131395816803,0.014365196228027344,0.0,0.00359131395816803,0.011970996856689453,0.033518821001052856,0.005927897162966765,9.714473724365234,9.673771858215332,9.68813705444336,0.014365196228027344,9.690531730651855,9.695320129394531,0.019153594970703125,0.040701866149902344,0.005948418232870967,0.023941993713378906,-0.028730392456054688,-0.004788398742675781,0.023941993713378906,0.0,0.005985260009765625,0.01795673370361328,0.052672386169433594,0.00842137886052776,./Data/Curated/Off/Experiment21.csv,Off
115,0.7541735172271729,-0.933738648891449,-0.4465186297893524,0.48722001910209656,-0.09516951814293861,0.29628247022628784,0.457891047000885,1.6879121661186218,0.42577182294385446,1.2461819648742676,-1.3946225047111511,-0.4704606421291828,0.9241618625819683,0.08439561724662781,0.5018845200538635,0.744297444820404,2.6408044695854187,0.6044521475355948,0.6212953329086304,-0.243011474609375,0.1487397849559784,0.3917512595653534,0.2885012924671173,0.4183867573738098,0.20290857553482056,0.8643068075180054,0.17482995695073175,0.7122749984264374,-0.6344634592533112,-0.18584991432726383,0.4486135449260473,0.02334347367286682,0.17537526972591877,0.5368997287005186,1.3467384576797485,0.2648265896084471,10.20648193359375,9.077615737915039,9.505280017852783,0.42766427993774414,9.6803560256958,9.844957828521729,0.3615241050720215,1.128866195678711,0.2334129012900714,0.712275505065918,-0.8331813812255859,-0.22565364837646484,0.6075277328491211,0.03292036056518555,0.24181461334228516,0.4704608917236328,1.545456886291504,0.32425113058915267,./Data/Curated/HeavyLoad/Experiment56.csv,HeavyLoad
101,0.6177040338516235,-0.8870517015457153,-0.32202014327049255,0.5650315582752228,-0.06763619929552078,0.16519992053508759,0.45250411331653595,1.5047557353973389,0.3542736605890851,1.4245499968528748,-0.8559270799160004,-0.4216787591576576,0.43424832075834274,-0.08858546195551753,0.3196259152609855,1.1049240815918893,2.280477076768875,0.5216131862944571,0.5554547905921936,0.02753331884741783,0.19722236692905426,0.16968904808163643,0.2777273952960968,0.35823243856430054,0.19722235202789307,0.5279214717447758,0.12353743882866872,0.4357447251677513,-0.34596213698387146,-0.1843535341322422,0.16160860285162926,0.0,0.14604631066322327,0.28969841450452805,0.7817068621516228,0.19995284939628422,10.189722061157227,9.319430351257324,9.549273490905762,0.2298431396484375,9.676764965057373,9.799766540527344,0.3899555206298828,0.8702917098999023,0.17289794500271977,0.5374984741210938,-0.6045351028442383,-0.17986464500427246,0.4246704578399658,0.01197052001953125,0.19093751907348633,0.3465609550476074,1.142033576965332,0.24570328828488255,./Data/Curated/HeavyLoad/Experiment42.csv,HeavyLoad
124,0.10893617570400238,-0.3471592366695404,-0.1867477297782898,0.1604115068912506,-0.04668693244457245,0.004788403399288654,0.10414777230471373,0.4560954123735428,0.1146819333710532,0.38786066696047783,-0.3758896738290787,-0.15412673412356526,0.22176293970551342,0.0017956532537937164,0.152331083023455,0.23552958393702284,0.7637503407895565,0.19836230769677657,0.5207388401031494,0.0694318488240242,0.18285715579986572,0.11342530697584152,0.292691171169281,0.33518823981285095,0.18555060029029846,0.4513069912791252,0.09813650840182393,0.3100491315126419,-0.3100491315126419,-0.12330137565732002,0.18674775585532188,0.0023941993713378906,0.12509703263640404,0.18495209887623787,0.6200982630252838,0.16849955127416083,9.86770248413086,9.431957244873047,9.58249306678772,0.15053582191467285,9.677961826324463,9.750685453414917,0.11701703071594238,0.4357452392578125,0.10619479124847815,0.4357452392578125,-0.39743804931640625,-0.06823444366455078,0.32920360565185547,0.0017952919006347656,0.0658407211303711,0.3699045181274414,0.8331832885742188,0.16655030570878115,./Data/Curated/LightLoad/Experiment5.csv,LightLoad
49,-0.07422025501728058,-0.10295066982507706,-0.09217676520347595,0.010773904621601105,-0.08858546614646912,-0.08499415963888168,0.010773904621601105,0.02873041480779648,0.004805249885039565,0.020350709557533264,-0.01915360987186432,-0.0047884006053209305,0.014365209266543388,0.0,0.004788398742675781,0.015562310814857483,0.03950431942939758,0.006848542997667519,0.16639702022075653,0.1364694982767105,0.15083470940589905,0.014365211129188538,0.15442600846290588,0.15682020783424377,0.009576812386512756,0.02992752194404602,0.004355708437658069,0.020350709557533264,-0.0239420086145401,-0.004788398742675781,0.01915360987186432,0.0,0.003591299057006836,0.016759410500526428,0.044292718172073364,0.006257444109535172,9.718064308166504,9.679757118225098,9.68933391571045,0.009576797485351562,9.692925453186035,9.696516990661621,0.021547317504882812,0.03830718994140625,0.006023915565678233,0.03351879119873047,-0.035912513732910156,-0.004788398742675781,0.031124114990234375,0.0,0.004788398742675781,0.028730392456054688,0.06943130493164062,0.008756940781826992,./Data/Curated/Off/Experiment50.csv,Off
25,-0.07781155407428741,-0.10534487664699554,-0.0933738648891449,0.011971011757850647,-0.08978256583213806,-0.08619125932455063,0.008379705250263214,0.02753332257270813,0.004821278060111896,0.01795651763677597,-0.017956510186195374,-0.004788398742675781,0.013168111443519592,0.0,0.003591306507587433,0.014365211129188538,0.035913027822971344,0.006642963381727144,0.1628057211637497,0.1364694982767105,0.14694413542747498,0.010474637150764465,0.15083470940589905,0.15322890877723694,0.009576812386512756,0.026336222887039185,0.0045155730113014035,0.016759410500526428,-0.019153624773025513,-0.004788398742675781,0.014365226030349731,0.0,0.004788398742675781,0.011971011757850647,0.03591303527355194,0.006388095855792747,9.713275909423828,9.676166534423828,9.687837839126587,0.011671304702758789,9.691728591918945,9.695320129394531,0.017955780029296875,0.037109375,0.005813101984327073,0.02035045623779297,-0.027532577514648438,-0.004788398742675781,0.022744178771972656,0.0,0.004788398742675781,0.015562057495117188,0.047883033752441406,0.007983158095436522,./Data/Curated/Off/Experiment26.csv,Off
129,0.06584054976701736,-0.3447650372982025,-0.15442600846290588,0.19033902883529663,-0.05746084079146385,-0.0020949264871887863,0.06793547625420615,0.4106055870652199,0.1057437429669308,0.39624037221074104,-0.3878606930375099,-0.1191115363035351,0.2687491567339748,-0.0029927529394626617,0.12120646645780653,0.2750339057529345,0.784101065248251,0.18350716151048851,0.5446808934211731,0.06703764945268631,0.17717093229293823,0.11013328284025192,0.28550854325294495,0.33758243918418884,0.20709845423698425,0.4776432439684868,0.09675936996377205,0.33039984107017517,-0.3232172429561615,-0.12689268589019775,0.19632455706596375,0.0023942068219184875,0.13347674161195755,0.19692309945821762,0.6536170840263367,0.16695102885845753,9.882067680358887,9.398438453674316,9.599851131439209,0.20141267776489258,9.682750225067139,9.743204116821289,0.13886356353759766,0.4836292266845703,0.10090899510587878,0.40222644805908203,-0.4141969680786133,-0.0673367977142334,0.3468601703643799,-0.0017957687377929688,0.06613993644714355,0.3360865116119385,0.8164234161376953,0.1540271781592594,./Data/Curated/LightLoad/Experiment10.csv,LightLoad
12,-0.07541735470294952,-0.1041477769613266,-0.0933738648891449,0.010773912072181702,-0.090979665517807,-0.08738835901021957,0.01197100430727005,0.028730422258377075,0.004730704977888477,0.015562310814857483,-0.016759410500526428,-0.003591306507587433,0.013168103992938995,0.0,0.003591306507587433,0.01197100430727005,0.03232172131538391,0.006112848357278567,0.16400282084941864,0.13287819921970367,0.14365209639072418,0.010773897171020508,0.1472434103488922,0.1496376097202301,0.014365211129188538,0.031124621629714966,0.004741971808754163,0.016759410500526428,-0.01915360987186432,-0.00359131395816803,0.015562295913696289,0.0,0.00359131395816803,0.013168096542358398,0.03591302037239075,0.006357058385955847,9.713275909423828,9.672574996948242,9.68813705444336,0.015562057495117188,9.691728591918945,9.695320129394531,0.017955780029296875,0.04070091247558594,0.005828537683572789,0.027533531188964844,-0.026336669921875,-0.004788398742675781,0.02154827117919922,0.0,0.004788398742675781,0.022745132446289062,0.053870201110839844,0.00821128729212601,./Data/Curated/Off/Experiment13.csv,Off
175,0.851138710975647,-1.0582371950149536,-0.4803367257118225,0.5779004693031311,-0.09277531504631042,0.29478609561920166,0.5563526153564453,1.9093759059906006,0.467567265542648,1.3251906335353851,-1.3790601789951324,-0.7368155680596828,0.6422446109354496,-0.04369416832923889,0.6892307959496975,0.6359598375856876,2.7042508125305176,0.754770685408164,0.6236895322799683,-0.013168109580874443,0.16490064561367035,0.1780687551945448,0.3106476664543152,0.39145198464393616,0.2322375476360321,0.6368576418608427,0.15352011328686507,0.4393359972164035,-0.5973533224314451,-0.15412673354148865,0.4432265888899565,0.028730422258377075,0.15352816134691238,0.2858078358694911,1.0366893196478486,0.21866624203272386,9.99339771270752,9.308655738830566,9.591172218322754,0.2825164794921875,9.673173427581787,9.759065389633179,0.23433232307434082,0.6847419738769531,0.1269143722829335,0.42138004302978516,-0.5746088027954102,-0.12360072135925293,0.4510080814361572,-0.007182598114013672,0.1400606632232666,0.28131937980651855,0.9959888458251953,0.17868325570605426,./Data/Curated/LightLoad/Experiment56.csv,LightLoad
147,0.28371289372444153,-0.4034229815006256,-0.18914192914962769,0.21428105235099792,-0.10055647045373917,-0.008080430910922587,0.2917933246353641,0.6871358752250671,0.1380239090885102,0.4884171485900879,-0.577002614736557,-0.14903905801475048,0.4279635567218065,0.010773909278213978,0.14514847681857646,0.34326867177151144,1.065419763326645,0.2125536977346695,0.50876784324646,0.040701430290937424,0.20679917559027672,0.1660977452993393,0.2693476974964142,0.3315969407558441,0.17717090249061584,0.46806641295552254,0.09101723775950792,0.3208230286836624,-0.33997663855552673,-0.09487023577094078,0.24510640278458595,-0.0005985498428344727,0.10324995219707489,0.21757307648658752,0.6607996672391891,0.1353043218649309,10.031704902648926,9.340977668762207,9.600749015808105,0.25977134704589844,9.670180320739746,9.743503332138062,0.28820157051086426,0.6907272338867188,0.10536081668533633,0.5039796829223633,-0.4656715393066406,-0.11881232261657715,0.3468592166900635,0.004189968109130859,0.1044471263885498,0.3995325565338135,0.9696512222290039,0.17033975961512615,./Data/Curated/LightLoad/Experiment28.csv,LightLoad
36,-0.07422025501728058,-0.10534487664699554,-0.09217676520347595,0.013168111443519592,-0.08978256583213806,-0.08619125932455063,0.01197100430727005,0.031124621629714966,0.004945513306327021,0.01915360987186432,-0.017956510186195374,-0.004788398742675781,0.013168111443519592,0.0,0.004788406193256378,0.01436520367860794,0.03711012005805969,0.006641946835899357,0.16639702022075653,0.1388636976480484,0.14844051003456116,0.009576812386512756,0.152031809091568,0.15562310814857483,0.010773912072181702,0.02753332257270813,0.004511799709492374,0.02274492383003235,-0.016759425401687622,-0.0038905851542949677,0.012868840247392654,0.0,0.004788398742675781,0.017956525087356567,0.03950434923171997,0.00621332460719322,9.71926212310791,9.671378135681152,9.68813705444336,0.01675891876220703,9.691728591918945,9.695320129394531,0.023941993713378906,0.04788398742675781,0.006256581759086692,0.03591346740722656,-0.03112506866455078,-0.004788398742675781,0.026336669921875,0.0,0.005087614059448242,0.03082585334777832,0.06703853607177734,0.00914380792739042,./Data/Curated/Off/Experiment37.csv,Off
158,0.6512228846549988,-0.9133879542350769,-0.29568392038345337,0.6177040338516235,-0.04189852997660637,0.15592238306999207,0.4953005015850067,1.5646108388900757,0.33862463235748147,0.9780313968658447,-1.0714052617549896,-0.4037222657352686,0.667682996019721,0.007781154476106167,0.4486135467886925,0.5294178500771523,2.0494366586208344,0.4985347424348896,0.6224924325942993,0.0347159244120121,0.19393034279346466,0.15921441838145256,0.24600422382354736,0.3247136175632477,0.29777881503105164,0.5877765081822872,0.11483064845036492,0.32202014327049255,-0.36750994622707367,-0.09606735035777092,0.27144259586930275,0.013766653835773468,0.08649053052067757,0.235529612749815,0.6895300894975662,0.13119595173559973,10.012551307678223,9.354146003723145,9.586383819580078,0.2322378158569336,9.67077922821045,9.747992515563965,0.2645587921142578,0.6584053039550781,0.11322846088625924,0.369903564453125,-0.48722076416015625,-0.1161184310913086,0.37110233306884766,0.010175228118896484,0.11043238639831543,0.25947117805480957,0.8571243286132812,0.1541947815354834,./Data/Curated/LightLoad/Experiment39.csv,LightLoad
143,0.1280897855758667,-0.30047231912612915,-0.1496376097202301,0.15083470940589905,-0.08439560979604721,-0.02124853990972042,0.14933832548558712,0.42856210470199585,0.09141945534529547,0.37588968127965927,-0.40462007373571396,-0.09307459252886474,0.3115454812068492,-0.0059854984283447266,0.10115502867847681,0.27473465260118246,0.7805097550153732,0.15597781339750544,0.4572925269603729,0.013168109580874443,0.21368250250816345,0.200514392927289,0.27234044671058655,0.3199251890182495,0.1373673379421234,0.4441244173794985,0.07637410633848074,0.31364041566848755,-0.2717418819665909,-0.09487025067210197,0.1768716312944889,-0.001795649528503418,0.08798691630363464,0.2256534993648529,0.5853822976350784,0.127185976214476,9.882067680358887,9.47265911102295,9.607631921768188,0.13497281074523926,9.664793491363525,9.7351233959198,0.14694428443908691,0.4094085693359375,0.085704052499632,0.3351888656616211,-0.33159732818603516,-0.09217643737792969,0.23942089080810547,0.004788398742675781,0.09606742858886719,0.2391214370727539,0.6667861938476562,0.1393503964634223,./Data/Curated/LightLoad/Experiment24.csv,LightLoad
31,-0.07661445438861847,-0.10534487664699554,-0.0933738648891449,0.011971011757850647,-0.090979665517807,-0.08738835901021957,0.010773904621601105,0.028730422258377075,0.005130637998655074,0.02154780924320221,-0.02274491637945175,-0.004788406193256378,0.017956510186195374,0.0,0.005985500290989876,0.015562308952212334,0.04429272562265396,0.007619361202193462,0.16639702022075653,0.1364694982767105,0.1496376097202301,0.013168111443519592,0.152031809091568,0.15442600846290588,0.011971011757850647,0.02992752194404602,0.004125776507688995,0.023942023515701294,-0.017956510186195374,-0.003591299057006836,0.014365211129188538,0.0,0.003591299057006836,0.020350724458694458,0.04189853370189667,0.005914265513295247,9.716867446899414,9.672574996948242,9.68813705444336,0.015562057495117188,9.691728591918945,9.695320129394531,0.021547317504882812,0.044292449951171875,0.006321070535750196,0.031124114990234375,-0.044292449951171875,-0.005985260009765625,0.03830718994140625,0.0,0.005985260009765625,0.02513885498046875,0.07541656494140625,0.009155570095462725,./Data/Curated/Off/Experiment32.csv,Off
3,-0.07661445438861847,-0.10534487664699554,-0.0933738648891449,0.011971011757850647,-0.08978256583213806,-0.08738835901021957,0.010773904621601105,0.028730422258377075,0.004882341322651916,0.016759417951107025,-0.025139115750789642,-0.004788398742675781,0.02035071700811386,0.0,0.003591306507587433,0.013168111443519592,0.04189853370189667,0.006567381153412125,0.15562310814857483,0.13287819921970367,0.1412578970193863,0.008379697799682617,0.14484919607639313,0.1472434103488922,0.008379697799682617,0.022744908928871155,0.004408665990441588,0.020350709557533264,-0.017956510186195374,-0.00359131395816803,0.014365196228027344,0.0,0.00359131395816803,0.016759395599365234,0.03830721974372864,0.006054403749449823,9.713275909423828,9.676166534423828,9.68933391571045,0.013167381286621094,9.69232702255249,9.696516990661621,0.01675891876220703,0.037109375,0.005691610065993704,0.02992725372314453,-0.026335716247558594,-0.004788398742675781,0.021547317504882812,0.0,0.005985260009765625,0.023941993713378906,0.056262969970703125,0.008136580236310725,./Data/Curated/Off/Experiment4.csv,Off
54,-0.07541735470294952,-0.10295066982507706,-0.09217676520347595,0.010773904621601105,-0.08858546614646912,-0.08499415963888168,0.00957680493593216,0.027533315122127533,0.004659575699657124,0.02154780924320221,-0.017956510186195374,-0.004788398742675781,0.013168111443519592,0.0,0.00389057956635952,0.01765722967684269,0.03950431942939758,0.006225454137051514,0.16759411990642548,0.14484919607639313,0.152031809091568,0.007182613015174866,0.15562310814857483,0.15801730751991272,0.009576812386512756,0.02274492383003235,0.004146313619257498,0.015562310814857483,-0.015562310814857483,-0.003591299057006836,0.011971011757850647,0.0,0.003591299057006836,0.011971011757850647,0.031124621629714966,0.005686385359424701,9.716867446899414,9.674968719482422,9.68694019317627,0.011971473693847656,9.690531730651855,9.695320129394531,0.021547317504882812,0.04189872741699219,0.006228941989097157,0.02992725372314453,-0.032321929931640625,-0.004788398742675781,0.027533531188964844,0.0,0.005087614059448242,0.02483963966369629,0.062249183654785156,0.009053350358715935,./Data/Curated/Off/Experiment55.csv,Off
21,-0.07541735470294952,-0.1041477769613266,-0.09217676520347595,0.011971011757850647,-0.08978256583213806,-0.08619125932455063,0.010773904621601105,0.028730422258377075,0.004782090156426338,0.027533315122127533,-0.025139115750789642,-0.004788398742675781,0.02035071700811386,0.0,0.00389057956635952,0.023642735555768013,0.052672430872917175,0.0065700824107893865,0.15921440720558167,0.13527239859104156,0.14484919607639313,0.009576797485351562,0.14844051003456116,0.15083470940589905,0.008379697799682617,0.0239420086145401,0.004276289915387818,0.016759410500526428,-0.013168111443519592,-0.004788398742675781,0.008379712700843811,0.0,0.00359131395816803,0.013168096542358398,0.02992752194404602,0.005710357930022622,9.712079048156738,9.671378135681152,9.68813705444336,0.01675891876220703,9.690531730651855,9.694122314453125,0.01795673370361328,0.04070091247558594,0.005392618211411252,0.02992725372314453,-0.026335716247558594,-0.004788398742675781,0.021547317504882812,0.0,0.004788398742675781,0.02513885498046875,0.056262969970703125,0.007733442016655434,./Data/Curated/Off/Experiment22.csv,Off
23,-0.07422025501728058,-0.10175357013940811,-0.0933738648891449,0.008379705250263214,-0.090979665517807,-0.08708908408880234,0.012868829071521759,0.027533315122127533,0.00490240214084424,0.01795651763677597,-0.02154780924320221,-0.004788398742675781,0.016759410500526428,0.0,0.0059854984283447266,0.011971019208431244,0.03950432687997818,0.006685878513199724,0.16160862147808075,0.13766659796237946,0.14604631066322327,0.008379712700843811,0.1496376097202301,0.152031809091568,0.009576812386512756,0.023942023515701294,0.004391683647715451,0.015562310814857483,-0.017956525087356567,-0.00359131395816803,0.014365211129188538,0.0,0.0038905851542949677,0.011671725660562515,0.03351883590221405,0.005933069822749046,9.712079048156738,9.673771858215332,9.68813705444336,0.014365196228027344,9.690531730651855,9.694122314453125,0.01795673370361328,0.03830718994140625,0.00589750371643794,0.023941993713378906,-0.023941993713378906,-0.005985260009765625,0.01795673370361328,0.0,0.005985260009765625,0.01795673370361328,0.04788398742675781,0.008435017948513462,./Data/Curated/Off/Experiment24.csv,Off
90,0.608127236366272,-0.9217676520347595,-0.3546411395072937,0.5671265125274658,-0.06105214171111584,0.1834557056427002,0.4246715307235718,1.5298948884010315,0.37866394910228246,1.4879963397979736,-0.9085995508357882,-0.44831427466124296,0.4602852761745453,-0.12689268589019775,0.336983900051564,1.1510124397464097,2.396595890633762,0.5662597087189594,0.5913678407669067,0.028730420395731926,0.19482816755771637,0.16609774716198444,0.28072014451026917,0.363918662071228,0.2274491786956787,0.5626374203711748,0.13629962253960523,0.5159504860639572,-0.3842693567276001,-0.21428105235099792,0.16998830437660217,0.001795649528503418,0.1660977602005005,0.3498527258634567,0.9002198427915573,0.22532385711724826,10.394426345825195,9.319430351257324,9.543886423110962,0.2244560718536377,9.667188167572021,9.80455493927002,0.5898714065551758,1.074995994567871,0.1833561521855771,0.6416454315185547,-0.8236045837402344,-0.20380663871765137,0.619797945022583,0.0017952919006347656,0.2050034999847412,0.4366419315338135,1.465250015258789,0.26276312098927174,./Data/Curated/HeavyLoad/Experiment31.csv,HeavyLoad
151,0.333991140127182,-0.47644615173339844,-0.18914192914962769,0.28730422258377075,-0.08978256583213806,0.005985504016280174,0.32800563611090183,0.8104372918605804,0.14984955970667202,0.5590461120009422,-0.5698200017213821,-0.17477672267705202,0.3950432790443301,-0.0023941993713378906,0.1786673041060567,0.38037880789488554,1.1288661137223244,0.22596300811996864,0.6033388376235962,0.09217676520347595,0.22266076505184174,0.13048399984836578,0.2711433470249176,0.32202014327049255,0.28131869435310364,0.5111620724201202,0.0737767823233454,0.29807814955711365,-0.34117376804351807,-0.06135141849517822,0.27982234954833984,0.0041898563504219055,0.06254852935671806,0.23552962020039558,0.6392519176006317,0.09923288612274957,9.904812812805176,9.364919662475586,9.61481499671936,0.24989533424377441,9.671378135681152,9.732429504394531,0.17238330841064453,0.5398931503295898,0.0875781137475957,0.3758888244628906,-0.49559974670410156,-0.06973123550415039,0.42586851119995117,0.0,0.07691359519958496,0.29897522926330566,0.8714885711669922,0.1323998131593733,./Data/Curated/LightLoad/Experiment32.csv,LightLoad
19,-0.07302315533161163,-0.10534487664699554,-0.0933738648891449,0.011971011757850647,-0.08978256583213806,-0.08619125932455063,0.013168103992938995,0.03232172131538391,0.005274785769035691,0.02274491637945175,-0.02154780924320221,-0.004788406193256378,0.01675940304994583,0.0,0.004788406193256378,0.017956510186195374,0.04429272562265396,0.007351209785547436,0.15921440720558167,0.13527239859104156,0.14484919607639313,0.009576797485351562,0.14844051003456116,0.15083470940589905,0.008379697799682617,0.0239420086145401,0.0043967139019422,0.015562310814857483,-0.017956510186195374,-0.00359131395816803,0.014365196228027344,0.0,0.00359131395816803,0.011970996856689453,0.033518821001052856,0.00594878854767729,9.715670585632324,9.678560256958008,9.68813705444336,0.009576797485351562,9.692925453186035,9.696516990661621,0.019153594970703125,0.037110328674316406,0.005959421510375193,0.028730392456054688,-0.028730392456054688,-0.005985260009765625,0.022745132446289062,0.0,0.005985260009765625,0.022745132446289062,0.057460784912109375,0.008546857826021485,./Data/Curated/Off/Experiment20.csv,Off
133,0.12210428714752197,-0.23343466222286224,-0.16998831927776337,0.06344634294509888,-0.09397241845726967,0.004788403399288654,0.11731588374823332,0.3555389493703842,0.08879881385488284,0.2801216058433056,-0.31124621629714966,-0.15711949055548757,0.15412672574166209,0.0,0.15382745838724077,0.12629414745606482,0.5913678221404552,0.15822870875147294,0.3555389642715454,0.004788403399288654,0.22266076505184174,0.21787236165255308,0.2693476974964142,0.3064578175544739,0.04908114671707153,0.35075056087225676,0.0498811182566848,0.3172317398712039,-0.2561795962974429,-0.07302314788103104,0.18315644841641188,-0.0029927492141723633,0.06973112747073174,0.24750061240047216,0.5734113361686468,0.08555326198911167,9.872490882873535,9.443928718566895,9.593565940856934,0.14963722229003906,9.682151794433594,9.732429504394531,0.1400613784790039,0.4285621643066406,0.09109021180863229,0.4141969680786133,-0.4285621643066406,-0.09935951232910156,0.32920265197753906,0.0,0.10205316543579102,0.31214380264282227,0.8427591323852539,0.16118213983932927,./Data/Curated/LightLoad/Experiment14.csv,LightLoad
16,-0.07661445438861847,-0.1041477769613266,-0.0933738648891449,0.010773912072181702,-0.08978256583213806,-0.08738835901021957,0.010773904621601105,0.02753332257270813,0.004743152017402568,0.023942016065120697,-0.01795651763677597,-0.004788398742675781,0.01316811889410019,0.0,0.003591306507587433,0.020350709557533264,0.04189853370189667,0.0066635579271124325,0.15921440720558167,0.1364694982767105,0.14484919607639313,0.008379697799682617,0.14844051003456116,0.15083470940589905,0.008379697799682617,0.022744908928871155,0.004324937907549249,0.017956510186195374,-0.020350709557533264,-0.003591299057006836,0.016759410500526428,0.0,0.00359131395816803,0.014365196228027344,0.03830721974372864,0.00606977127081432,9.714473724365234,9.671378135681152,9.68813705444336,0.01675891876220703,9.691728591918945,9.694122314453125,0.020351409912109375,0.04309558868408203,0.005508619993195715,0.027533531188964844,-0.023941993713378906,-0.004788398742675781,0.019153594970703125,0.0,0.004788398742675781,0.022745132446289062,0.05147552490234375,0.007840741965829722,./Data/Curated/Off/Experiment17.csv,Off
32,-0.07302315533161163,-0.1041477769613266,-0.0933738648891449,0.010773912072181702,-0.08978256583213806,-0.08619125932455063,0.013168103992938995,0.031124621629714966,0.005003975392592618,0.021547816693782806,-0.02154780924320221,-0.004788398742675781,0.016759410500526428,0.0,0.004788398742675781,0.016759417951107025,0.043095625936985016,0.006845935866544681,0.16400282084941864,0.1364694982767105,0.14844051003456116,0.011971011757850647,0.152031809091568,0.15442600846290588,0.009576812386512756,0.02753332257270813,0.0045932181350115805,0.019153624773025513,-0.017956510186195374,-0.004788398742675781,0.013168111443519592,0.0,0.0038905851542949677,0.015263039618730545,0.037110134959220886,0.00634322545042247,9.716867446899414,9.672574996948242,9.68694019317627,0.014365196228027344,9.690531730651855,9.694122314453125,0.022745132446289062,0.044292449951171875,0.006309714025012266,0.02513885498046875,-0.032321929931640625,-0.005985260009765625,0.026336669921875,0.0,0.005985260009765625,0.019153594970703125,0.057460784912109375,0.00919042845276763,./Data/Curated/Off/Experiment33.csv,Off
56,-0.07541735470294952,-0.10295066982507706,-0.09217676520347595,0.010773904621601105,-0.08858546614646912,-0.08619125932455063,0.010773904621601105,0.027533315122127533,0.005036929419308815,0.02274491637945175,-0.02035071700811386,-0.004788406193256378,0.015562310814857483,0.0,0.004788406193256378,0.017956510186195374,0.04309563338756561,0.007339146819861525,0.16879121959209442,0.14365209639072418,0.15442600846290588,0.010773912072181702,0.15682020783424377,0.15921440720558167,0.009576812386512756,0.02513912320137024,0.00439596936244806,0.017956525087356567,-0.01915360987186432,-0.00359131395816803,0.015562295913696289,0.0,0.004788398742675781,0.013168126344680786,0.037110134959220886,0.006405223514624632,9.712079048156738,9.674968719482422,9.68813705444336,0.0131683349609375,9.691728591918945,9.695320129394531,0.01675891876220703,0.037110328674316406,0.006223625628205693,0.02992725372314453,-0.025139808654785156,-0.005985260009765625,0.01915454864501953,0.0,0.005985260009765625,0.023941993713378906,0.05506706237792969,0.008921318017411695,./Data/Curated/Off/Experiment57.csv,Off
119,0.7457938194274902,-0.9864110946655273,-0.4381389021873474,0.5482721924781799,-0.1322796493768692,0.28371289372444153,0.4620809257030487,1.7322049140930176,0.4256908008749947,1.2102689445018768,-1.4664485454559326,-0.43155486416071653,1.034893681295216,0.03411737084388733,0.4794388897716999,0.7308300547301769,2.6767174899578094,0.6126151868414533,0.6033388376235962,-0.10654197633266449,0.14933833107352257,0.25588030740618706,0.2998737692832947,0.4213795065879822,0.181959331035614,0.7098808139562607,0.1718779917461634,0.602141723036766,-0.6667851507663727,-0.19871873874217272,0.46806641202419996,0.028730422258377075,0.1876455768942833,0.41449614614248276,1.2689268738031387,0.2633487981077494,10.178948402404785,9.077615737915039,9.528025150299072,0.4504094123840332,9.681553363800049,9.837774515151978,0.3411738872528076,1.101332664489746,0.2261580323131938,0.7015008926391602,-0.7338228225708008,-0.22655177116394043,0.5072710514068604,0.017357826232910156,0.23014235496520996,0.4713585376739502,1.435323715209961,0.29752907025776776,./Data/Curated/HeavyLoad/Experiment60.csv,HeavyLoad
112,0.751779317855835,-0.9552865028381348,-0.4420294761657715,0.5132570266723633,-0.12270283699035645,0.28550854325294495,0.46627077460289,1.7070658206939697,0.42976514288313095,1.274912416934967,-1.3096283674240112,-0.4623802178539336,0.8472481495700777,0.041898518800735474,0.49081134906737134,0.7841010678675957,2.5845407843589783,0.6268429507325778,0.5937620401382446,-0.14604631066322327,0.1529296338558197,0.29897594451904297,0.29388827085494995,0.41449618339538574,0.1792658567428589,0.7398083508014679,0.16995257605119507,0.5829881429672241,-0.6440402567386627,-0.173280349932611,0.47075990680605173,0.00359131395816803,0.17298107780516148,0.41000706516206264,1.2270283997058868,0.26773598657001924,10.17416000366211,9.11233139038086,9.528623580932617,0.4162921905517578,9.676764488220215,9.82370924949646,0.3504507541656494,1.06182861328125,0.21087315815335608,0.6691799163818359,-0.7386112213134766,-0.2136821746826172,0.5249290466308594,0.0035910606384277344,0.23433256149291992,0.434847354888916,1.4077911376953125,0.29431727963625026,./Data/Curated/HeavyLoad/Experiment53.csv,HeavyLoad
113,0.8667010068893433,-0.9373299479484558,-0.4213795065879822,0.5159504413604736,-0.12449848651885986,0.3073556423187256,0.5593453645706177,1.804030954837799,0.42636986086994516,1.2928689122200012,-1.338358759880066,-0.4354454316198826,0.9029133282601833,0.07541735470294952,0.48243165016174316,0.8104372620582581,2.631227672100067,0.6044841067337506,0.5997475385665894,-0.23822307586669922,0.14574703201651573,0.38397010788321495,0.29867666959762573,0.41539400815963745,0.1843535304069519,0.8379706144332886,0.1682702654147457,0.6931214034557343,-0.6584054753184319,-0.18614918924868107,0.4722562860697508,0.024540569633245468,0.18106150440871716,0.5120598990470171,1.351526878774166,0.2591442334541971,10.195708274841309,9.117119789123535,9.516652345657349,0.3995325565338135,9.671378135681152,9.82610297203064,0.36960530281066895,1.0785884857177734,0.21799899389551694,0.6643915176391602,-0.7278375625610352,-0.21458029747009277,0.5132572650909424,0.009576797485351562,0.2469022274017334,0.41748929023742676,1.3922290802001953,0.30288623930831793,./Data/Curated/HeavyLoad/Experiment54.csv,HeavyLoad
92,0.585382342338562,-0.9409212470054626,-0.3372831642627716,0.603638082742691,-0.04249708168208599,0.20380641520023346,0.38157592713832855,1.5263035893440247,0.37694171572719837,1.45806884765625,-0.9205705318599939,-0.4507084684446454,0.46986206341534853,-0.11492168344557285,0.3570353211835027,1.1010335264727473,2.378639379516244,0.562444295729497,0.5997475385665894,0.020350715145468712,0.19393034279346466,0.17357962764799595,0.27892449498176575,0.3711012601852417,0.22864627838134766,0.5793968234211206,0.1382946803160595,0.5554548054933548,-0.38307225704193115,-0.2059013545513153,0.17717090249061584,-0.0059854984283447266,0.1604115106165409,0.3950432948768139,0.938527062535286,0.2276184946511644,10.193313598632812,9.211690902709961,9.558850288391113,0.34715938568115234,9.660604000091553,9.822511672973633,0.3708019256591797,0.9816226959228516,0.18760860247901395,0.6991062164306641,-0.6081266403198242,-0.21637606620788574,0.3917505741119385,-0.005386829376220703,0.20260953903198242,0.49649667739868164,1.3072328567504883,0.2728552992846977,./Data/Curated/HeavyLoad/Experiment33.csv,HeavyLoad
2,-0.07781155407428741,-0.10534487664699554,-0.0933738648891449,0.011971011757850647,-0.08978256583213806,-0.08708908408880234,0.009277530014514923,0.02753332257270813,0.005014089186172548,0.021547816693782806,-0.02035071700811386,-0.004788398742675781,0.01556231826543808,0.0,0.004788398742675781,0.016759417951107025,0.04189853370189667,0.006935580936383045,0.15682020783424377,0.13168109953403473,0.14095862209796906,0.009277522563934326,0.14365209639072418,0.1472434103488922,0.009576797485351562,0.025139108300209045,0.004550417467916004,0.014365211129188538,-0.015562310814857483,-0.00359131395816803,0.011970996856689453,0.0,0.004788398742675781,0.009576812386512756,0.02992752194404602,0.005914275494177539,9.718064308166504,9.677363395690918,9.68933391571045,0.01197052001953125,9.692925453186035,9.696516990661621,0.021547317504882812,0.04070091247558594,0.005846782150759236,0.026336669921875,-0.028730392456054688,-0.004788398742675781,0.023941993713378906,0.0,0.005985260009765625,0.020351409912109375,0.05506706237792969,0.008226602470990756,./Data/Curated/Off/Experiment3.csv,Off
57,-0.07661445438861847,-0.1041477769613266,-0.0933738648891449,0.010773912072181702,-0.08858546614646912,-0.08619125932455063,0.00957680493593216,0.02753332257270813,0.004850739430577076,0.02035071700811386,-0.02154780924320221,-0.004788398742675781,0.016759410500526428,0.0,0.004788406193256378,0.015562310814857483,0.04189852625131607,0.006686694380083186,0.16998831927776337,0.14484919607639313,0.15322890877723694,0.008379712700843811,0.15562310814857483,0.15921440720558167,0.010773912072181702,0.02513912320137024,0.004224566041919584,0.014365211129188538,-0.013168111443519592,-0.003591299057006836,0.009576812386512756,0.0,0.003591299057006836,0.010773912072181702,0.02753332257270813,0.005739822224533321,9.715670585632324,9.673771858215332,9.68813705444336,0.014365196228027344,9.691728591918945,9.695320129394531,0.02035045623779297,0.04189872741699219,0.005919442375902718,0.02154827117919922,-0.032321929931640625,-0.004788398742675781,0.027533531188964844,0.0,0.004788398742675781,0.016759872436523438,0.053870201110839844,0.008282476613319554,./Data/Curated/Off/Experiment58.csv,Off
68,1.191115379333496,-1.3898340463638306,-0.5826888233423233,0.8071452230215073,-0.10953472927212715,0.44262803345918655,0.7484873458743095,2.5809494256973267,0.6233997434383812,2.0769699811935425,-2.370259642601013,-0.9507973790168762,1.419462263584137,0.07122749090194702,0.9376292452216148,1.1393407359719276,4.447229623794556,1.0691507527114854,0.7182605266571045,-0.31124621629714966,0.14245499670505524,0.4537012130022049,0.2717418968677521,0.4076128304004669,0.3106476962566376,1.0295067429542542,0.1961839867396469,0.8595184087753296,-0.9169792532920837,-0.23672671988606453,0.6802525334060192,0.007182598114013672,0.2091933637857437,0.6503250449895859,1.7764976620674133,0.32813314802264426,10.145429611206055,9.169792175292969,9.54628038406372,0.37648820877075195,9.668983459472656,9.794379711151123,0.35104990005493164,0.9756374359130859,0.17392693368024575,0.7805099487304688,-0.6368579864501953,-0.21248507499694824,0.42437291145324707,0.009576797485351562,0.2112889289855957,0.569221019744873,1.417367935180664,0.27685176432982705,./Data/Curated/HeavyLoad/Experiment9.csv,HeavyLoad
157,0.5482721924781799,-0.7817068696022034,-0.2899976670742035,0.4917092025279999,-0.10115502029657364,0.12928688898682594,0.418985303491354,1.3299790620803833,0.2844295033273969,0.7948749791830778,-0.8846575319766998,-0.32920274254865944,0.5554547894280404,0.05686228722333908,0.34805706702172756,0.44681791216135025,1.6795325111597776,0.4082970106195924,0.5973533391952515,0.04908113554120064,0.19632454216480255,0.1472434066236019,0.2513911724090576,0.3603273630142212,0.23702597618103027,0.5482722036540508,0.1080292627190982,0.44412440061569214,-0.36990417540073395,-0.07781156897544861,0.29209260642528534,-0.013168096542358398,0.06464344635605812,0.379480954259634,0.8140285760164261,0.11489764958301922,9.909601211547852,9.373299598693848,9.598055124282837,0.22475552558898926,9.675567626953125,9.744700193405151,0.1649010181427002,0.5363016128540039,0.10374535512589837,0.36272144317626953,-0.3938465118408203,-0.09247636795043945,0.30137014389038086,0.008379936218261719,0.09457111358642578,0.26815032958984375,0.7565679550170898,0.13265541720129667,./Data/Curated/LightLoad/Experiment38.csv,LightLoad
70,1.4664485454559326,-1.6280571222305298,-0.8580220341682434,0.7700350880622864,-0.05506663955748081,0.6796540021896362,0.7867945432662964,3.0945056676864624,0.8513429321292908,2.5965118408203125,-2.8239609003067017,-1.336563117802143,1.4873977825045586,-0.0784100890159607,1.3643956780433655,1.232116162776947,5.420472741127014,1.4909920762023907,0.8667010068893433,-0.24660277366638184,0.08080430887639523,0.32740708254277706,0.28550854325294495,0.4833294749259949,0.3833715319633484,1.113303780555725,0.25873160178599064,1.0354922264814377,-0.8798691183328629,-0.33219547057524323,0.5476736477576196,-0.01975216716527939,0.34237084072083235,0.6931213857606053,1.9153613448143005,0.4389820967580762,10.301053047180176,9.131484985351562,9.495404243469238,0.3639192581176758,9.685742855072021,9.846453666687012,0.45459938049316406,1.1695680618286133,0.2357448438368516,0.9672574996948242,-0.9684553146362305,-0.2259526252746582,0.7425026893615723,-0.005985260009765625,0.25647926330566406,0.7107782363891602,1.9357128143310547,0.3878563504893072,./Data/Curated/HeavyLoad/Experiment11.csv,HeavyLoad
159,0.8990227580070496,-1.013944387435913,-0.43604397773742676,0.5779004096984863,-0.05506663955748081,0.20470423996448517,0.6943185180425644,1.9129671454429626,0.4097673150186238,1.138442873954773,-1.337161660194397,-0.5731120109558105,0.7640496492385864,0.031124621629714966,0.5692214420996606,0.5692214318551123,2.47560453414917,0.6337797604634146,0.628477931022644,0.014365210197865963,0.16250644624233246,0.1481412360444665,0.24480712413787842,0.3761889338493347,0.2522889971733093,0.6141127208247781,0.13885624447403225,0.3663128474727273,-0.47165775299072266,-0.1268926877528429,0.34476506523787975,0.03531448170542717,0.1367687825113535,0.2295440649613738,0.83797060046345,0.17650213455570374,10.040084838867188,9.333795547485352,9.576208353042603,0.24241280555725098,9.674968719482422,9.762656927108765,0.27742791175842285,0.7062892913818359,0.1271850368384895,0.3986349105834961,-0.4967975616455078,-0.12120676040649414,0.37559080123901367,0.00658416748046875,0.12270307540893555,0.27593183517456055,0.8954324722290039,0.1675737329635404,./Data/Curated/LightLoad/Experiment40.csv,LightLoad
1,-0.07182604819536209,-0.10654197633266449,-0.0933738648891449,0.013168111443519592,-0.08978256583213806,-0.08738835901021957,0.015562310814857483,0.0347159281373024,0.005046856841173546,0.02274491637945175,-0.023942016065120697,-0.004788406193256378,0.01915360987186432,0.0,0.004788398742675781,0.01795651763677597,0.04668693244457245,0.006896622412615239,0.15562310814857483,0.13287819921970367,0.1412578970193863,0.008379697799682617,0.14365209639072418,0.1472434103488922,0.008379697799682617,0.022744908928871155,0.004444141512915768,0.016759410500526428,-0.016759410500526428,-0.004788398742675781,0.011971011757850647,0.0,0.004788413643836975,0.011970996856689453,0.033518821001052856,0.006314872082214892,9.712079048156738,9.679757118225098,9.68933391571045,0.009576797485351562,9.692925453186035,9.696516990661621,0.015562057495117188,0.032321929931640625,0.0054445324138213454,0.022745132446289062,-0.02513885498046875,-0.004788398742675781,0.02035045623779297,0.0,0.004788398742675781,0.01795673370361328,0.04788398742675781,0.007382608157406402,./Data/Curated/Off/Experiment2.csv,Off
15,-0.07661445438861847,-0.10534487664699554,-0.0933738648891449,0.011971011757850647,-0.08978256583213806,-0.08738835901021957,0.010773904621601105,0.028730422258377075,0.004802539671494762,0.01915360987186432,-0.021547816693782806,-0.003591306507587433,0.017956510186195374,0.0,0.004788398742675781,0.014365211129188538,0.040701426565647125,0.00654993950755256,0.15921440720558167,0.12689268589019775,0.14365209639072418,0.016759410500526428,0.1472434103488922,0.1496376097202301,0.009576797485351562,0.03232172131538391,0.004538992876079741,0.019153624773025513,-0.01915360987186432,-0.00359131395816803,0.015562295913696289,0.0,0.0038905851542949677,0.015263039618730545,0.03830723464488983,0.006151506741221198,9.713275909423828,9.674968719482422,9.68813705444336,0.0131683349609375,9.691728591918945,9.695320129394531,0.017955780029296875,0.03830718994140625,0.005896330261429297,0.02513885498046875,-0.027532577514648438,-0.004788398742675781,0.022744178771972656,0.0,0.005985260009765625,0.019153594970703125,0.05267143249511719,0.008644889571554569,./Data/Curated/Off/Experiment16.csv,Off
161,1.2701239585876465,-1.3491326570510864,-0.7068880796432495,0.6422445774078369,-0.08858546242117882,0.513855516910553,0.7562684416770935,2.619256615638733,0.6936682379307093,1.847126543521881,-1.8890252113342285,-1.0061632618308067,0.8828619495034218,-0.10474634170532227,1.1680711582303047,0.6790553852915764,3.7361517548561096,1.153952262694506,0.6859387755393982,-0.20111294090747833,0.10145429521799088,0.3025672361254692,0.31543606519699097,0.4010287821292877,0.2849099934101105,0.8870517164468765,0.20808911844180988,0.6404489427804947,-0.7625532299280167,-0.22056583873927593,0.5419873911887407,0.0412999764084816,0.23912088200449944,0.40132806077599525,1.4030021727085114,0.31568582155956926,10.20767879486084,9.228450775146484,9.57321548461914,0.34476470947265625,9.678560256958008,9.774627447128296,0.43305134773254395,0.9792280197143555,0.15661556325592624,0.5650310516357422,-0.6991071701049805,-0.15292882919311523,0.5461783409118652,0.0448908805847168,0.15801715850830078,0.4070138931274414,1.2641382217407227,0.22076750146185578,./Data/Curated/LightLoad/Experiment42.csv,LightLoad
73,1.0187327861785889,-1.2018892765045166,-0.4884171485900879,0.7134721279144287,-0.11731588467955589,0.3447650372982025,0.6739677488803864,2.2206220626831055,0.5222253249957951,1.8638860583305359,-2.0745757818222046,-0.7191583439707756,1.355417437851429,-0.022146359086036682,0.7425017990171909,1.121384259313345,3.9384618401527405,0.8887102382407865,0.7793126702308655,-0.14006079733371735,0.1203086357563734,0.26036943309009075,0.24420857429504395,0.4106055870652199,0.3687070831656456,0.9193734675645828,0.20079153904254377,0.7673416435718536,-0.8355763703584671,-0.23044192418456078,0.6051344461739063,0.014963775873184204,0.22625205293297768,0.541089590638876,1.6029180139303207,0.32035734460278986,10.14902114868164,9.220070838928223,9.548674821853638,0.32860398292541504,9.66299819946289,9.816526174545288,0.33249497413635254,0.928950309753418,0.19475099594172737,0.7637500762939453,-0.7445964813232422,-0.19991588592529297,0.5446805953979492,-0.007781028747558594,0.22774863243103027,0.536001443862915,1.5083465576171875,0.3027802013277395,./Data/Curated/HeavyLoad/Experiment14.csv,HeavyLoad
60,0.7936778664588928,-0.8774749040603638,-0.3645172119140625,0.5129576921463013,-0.09935937076807022,0.22625206410884857,0.5674258023500443,1.6711527705192566,0.3909291774830842,1.3646950125694275,-1.3874399065971375,-0.5599438981153071,0.8274960084818304,0.051475342363119125,0.5446808889973909,0.8200141235720366,2.752134919166565,0.6353548102667695,0.5171475410461426,-0.015562310814857483,0.19363106787204742,0.2091933786869049,0.2861070930957794,0.3519476354122162,0.1651999056339264,0.5327098518610001,0.10887135050128642,0.38307227194309235,-0.42856208980083466,-0.10684124380350113,0.3217208459973335,0.0011970996856689453,0.1107318252325058,0.27234044671058655,0.811634361743927,0.154696075339888,10.000580787658691,9.329007148742676,9.594464302062988,0.2654571533203125,9.677363395690918,9.758766174316406,0.24181461334228516,0.6715736389160156,0.11750453387358512,0.4548978805541992,-0.4908113479614258,-0.10863637924194336,0.3821749687194824,-0.007780551910400391,0.11402392387390137,0.34087395668029785,0.945709228515625,0.17380810054768497,./Data/Curated/HeavyLoad/Experiment1.csv,HeavyLoad
103,0.5315127968788147,-0.9409212470054626,-0.3531447649002075,0.5877764821052551,-0.02633621823042631,0.14484919607639313,0.38666360080242157,1.4724340438842773,0.36125966399232534,1.410184770822525,-0.95049805380404,-0.40521863056346774,0.5452794232405722,-0.07781155407428741,0.31423896737396717,1.0959458034485579,2.360682824626565,0.5395421742893436,0.5758054852485657,0.02753331884741783,0.18166005611419678,0.15412673726677895,0.27653029561042786,0.3705027103424072,0.20530277490615845,0.5482721664011478,0.13511528232438236,0.5363011658191681,-0.37229835987091064,-0.19213467836380005,0.1801636815071106,0.001795649528503418,0.15562313422560692,0.3806780315935612,0.9085995256900787,0.22428284210292584,10.135852813720703,9.299078941345215,9.537302017211914,0.23822307586669922,9.65880823135376,9.825803756713867,0.31004905700683594,0.8367738723754883,0.18605923742777405,0.5506668090820312,-0.4991912841796875,-0.19782066345214844,0.30137062072753906,-0.0317230224609375,0.19183588027954102,0.35883092880249023,1.0498580932617188,0.2693136321314793,./Data/Curated/HeavyLoad/Experiment44.csv,HeavyLoad
134,0.18794482946395874,-0.3280056416988373,-0.1678933948278427,0.16011224687099457,-0.08499415963888168,-0.01346738450229168,0.20141221396625042,0.515950471162796,0.1003351360082318,0.49559974670410156,-0.46327802538871765,-0.14185644377721474,0.3214215816115029,0.012569560669362545,0.13796587847173214,0.3576338682323694,0.9588777720928192,0.16718869730119326,0.4513070285320282,0.0586579404771328,0.22744916379451752,0.16879122331738472,0.2651578485965729,0.30526071786880493,0.14604631066322327,0.3926490880548954,0.05764993034913013,0.243011474609375,-0.25258828699588776,-0.06823474541306496,0.1843535415828228,-0.0005985498428344727,0.06374562159180641,0.1792658530175686,0.49559976160526276,0.0921195908773774,9.913191795349121,9.434351921081543,9.595661401748657,0.16130948066711426,9.678560256958008,9.7351233959198,0.1780683994293213,0.4788398742675781,0.09751072685894183,0.4537010192871094,-0.4513072967529297,-0.11013317108154297,0.3411741256713867,-0.0029926300048828125,0.12330150604248047,0.3303995132446289,0.9050083160400391,0.17299616282417485,./Data/Curated/LightLoad/Experiment15.csv,LightLoad
18,-0.06703764945268631,-0.11013327538967133,-0.0933738648891449,0.016759410500526428,-0.08978256583213806,-0.08708908408880234,0.020051434636116028,0.043095625936985016,0.0050783874135532335,0.021547816693782806,-0.0347159206867218,-0.004788398742675781,0.02992752194404602,0.0,0.004788398742675781,0.016759417951107025,0.05626373738050461,0.006638945185044378,0.1604115068912506,0.13287819921970367,0.14484919607639313,0.011970996856689453,0.14844051003456116,0.15083470940589905,0.009576797485351562,0.027533307671546936,0.004624250911407508,0.017956510186195374,-0.016759410500526428,-0.004788398742675781,0.011971011757850647,0.0,0.004788398742675781,0.013168111443519592,0.0347159206867218,0.006255726265756805,9.716867446899414,9.677363395690918,9.68933391571045,0.01197052001953125,9.692925453186035,9.696516990661621,0.02035045623779297,0.039504051208496094,0.0059110535754768245,0.022745132446289062,-0.02992725372314453,-0.004788398742675781,0.02513885498046875,0.0,0.005985260009765625,0.016759872436523438,0.052672386169433594,0.008346636964123426,./Data/Curated/Off/Experiment19.csv,Off
121,0.047884032130241394,-0.22026655077934265,-0.1173158809542656,0.10295066982507706,-0.08978256583213806,-0.05626374110579491,0.1041477732360363,0.26815058290958405,0.05547587908090332,0.24779986962676048,-0.25737668573856354,-0.047884032130241394,0.20949265360832214,-0.00119710061699152,0.04429273307323456,0.20350713655352592,0.505176555365324,0.09901435520554769,0.3866635859012604,0.016759412363171577,0.2298433631658554,0.21308395080268383,0.2603694349527359,0.2959831953048706,0.09068039059638977,0.3699041735380888,0.05321286063579922,0.2837129067629576,-0.21068975143134594,-0.07721300050616264,0.1334767509251833,0.0011970996856689453,0.0694318450987339,0.21428106166422367,0.4944026581943035,0.08308048764730318,9.835380554199219,9.524134635925293,9.621099472045898,0.09696483612060547,9.657012939453125,9.716867685317993,0.11851286888122559,0.3112459182739258,0.06863382897646621,0.21188735961914062,-0.19752120971679688,-0.08738827705383301,0.11013293266296387,-0.0005984306335449219,0.08319830894470215,0.12868905067443848,0.4094085693359375,0.101955391393378,./Data/Curated/LightLoad/Experiment2.csv,LightLoad
107,0.8152256608009338,-1.0211269855499268,-0.4330512285232544,0.5880757570266724,-0.09636661782860756,0.29568392038345337,0.5195417404174805,1.8363526463508606,0.4378464191610329,1.5550339818000793,-1.1563993841409683,-0.5368997342884541,0.6194996498525143,-0.082599937915802,0.47105920035392046,1.0839747814461589,2.7114333659410477,0.643465436193668,0.6332663297653198,-0.08259996026754379,0.15562310814857483,0.23822306841611862,0.2968810200691223,0.3878606855869293,0.2454056441783905,0.7158662900328636,0.15042814630724108,0.5039794631302357,-0.5434837862849236,-0.18046295642852783,0.3630208298563957,0.008978252531960607,0.17747020348906517,0.3265092596411705,1.0474632494151592,0.23103505210431588,10.188525199890137,9.103952407836914,9.537002801895142,0.43305039405822754,9.654618263244629,9.805452823638916,0.3830723762512207,1.0845727920532227,0.19909456674796389,0.6631937026977539,-0.6763620376586914,-0.19333219528198242,0.483029842376709,-0.0017957687377929688,0.21039032936096191,0.452803373336792,1.3395557403564453,0.2701301193746386,./Data/Curated/HeavyLoad/Experiment48.csv,HeavyLoad
88,0.7553706169128418,-1.0426748991012573,-0.39953240752220154,0.6431424915790558,-0.09277531504631042,0.21218612790107727,0.5431844890117645,1.7980455160140991,0.40601875813027605,1.637634038925171,-1.4856021404266357,-0.5737105682492256,0.9118915721774101,0.04010287392884493,0.5018845153972507,1.1357495235279202,3.1232361793518066,0.6703773257157191,0.6751648783683777,-0.047884032130241394,0.16220716759562492,0.21009119972586632,0.25677812099456787,0.400130957365036,0.2750339210033417,0.7230489104986191,0.17185429772611924,0.6045359373092651,-0.702698215842247,-0.18914193287491798,0.513556282967329,0.016759410500526428,0.19782090932130814,0.406715027987957,1.3072341531515121,0.2677873044850512,10.085575103759766,9.257181167602539,9.55436086654663,0.2971796989440918,9.68813705444336,9.806949377059937,0.2786257266998291,0.8283939361572266,0.16697538146409113,0.5674257278442383,-0.6057329177856445,-0.17357969284057617,0.43215322494506836,-0.01975250244140625,0.17926621437072754,0.38815951347351074,1.1731586456298828,0.23951644149557852,./Data/Curated/HeavyLoad/Experiment29.csv,HeavyLoad
176,0.8702923059463501,-1.035492181777954,-0.48961424827575684,0.5458779335021973,-0.07900865375995636,0.30196869373321533,0.5683236122131348,1.9057844877243042,0.47251809619477625,1.2880805432796478,-1.337161660194397,-0.7317278981208801,0.6054337620735168,-0.017956512048840523,0.7613561227917671,0.5267244204878807,2.625242203474045,0.7796632097313899,0.6165069341659546,-0.021547814831137657,0.15412673354148865,0.1756745483726263,0.31364041566848755,0.39294835925102234,0.22355857491493225,0.6380547489970922,0.15654334453051513,0.4548983240965754,-0.57221420109272,-0.16460135951638222,0.4076128415763378,0.017357975244522095,0.17148470878601074,0.28341361531056464,1.0271125251892954,0.230182737705509,10.111910820007324,9.271546363830566,9.592967510223389,0.32142114639282227,9.674370765686035,9.762357711791992,0.34955310821533203,0.8403644561767578,0.13226633960028608,0.48602294921875,-0.5590457916259766,-0.11492156982421875,0.4441242218017578,-0.0029931068420410156,0.1322798728942871,0.3537430763244629,1.0450687408447266,0.18664651582222158,./Data/Curated/LightLoad/Experiment57.csv,LightLoad
179,0.8236053586006165,-1.0402805805206299,-0.4821323752403259,0.558148205280304,-0.08918401598930359,0.31274259090423584,0.5108627676963806,1.8638859391212463,0.46782389947048436,1.2832921147346497,-1.3251906633377075,-0.7460930943489075,0.5790975689888,0.01496376097202301,0.7003039941191673,0.5829881206154823,2.608482778072357,0.7672789690319898,0.6093243360519409,-0.03711012750864029,0.15682020783424377,0.19393033534288406,0.3100491166114807,0.3998316824436188,0.20949265360832214,0.6464344635605812,0.15557578215517767,0.43933600932359695,-0.5913678240031004,-0.16789338958915323,0.42347443441394717,0.030526086688041687,0.16789338737726212,0.27144262194633484,1.0307038333266973,0.2264029512510298,10.005369186401367,9.319430351257324,9.579200744628906,0.25977039337158203,9.684545516967773,9.759963035583496,0.2454061508178711,0.685938835144043,0.1282044650529609,0.4034233093261719,-0.49320507049560547,-0.12479782104492188,0.3684072494506836,0.01675891876220703,0.1400604248046875,0.2633628845214844,0.8966283798217773,0.18161091662198237,./Data/Curated/LightLoad/Experiment60.csv,LightLoad
128,0.08379705995321274,-0.36990416049957275,-0.17298106849193573,0.19692309200763702,-0.058059390634298325,0.004788403399288654,0.07900865655392408,0.4537012204527855,0.11582765670224804,0.45250412076711655,-0.4513070210814476,-0.13587095006369054,0.31543607101775706,0.0,0.14065934694372118,0.31184477382339537,0.9038111418485641,0.1995620237089852,0.46806642413139343,0.023942016065120697,0.1711854189634323,0.14724340289831161,0.2890998423099518,0.33848026394844055,0.12958616018295288,0.44412440806627274,0.1008044717604863,0.414196889847517,-0.40940848365426064,-0.13168108463287354,0.2777273990213871,-0.001795649528503418,0.139761533588171,0.274435356259346,0.8236053735017776,0.17479475154643487,9.886856079101562,9.411606788635254,9.58368992805481,0.17208313941955566,9.676764965057373,9.749488592147827,0.13736748695373535,0.4752492904663086,0.10756243547381625,0.4417304992675781,-0.4513072967529297,-0.06613993644714355,0.38516736030578613,-0.00119781494140625,0.06524229049682617,0.37648820877075195,0.8930377960205078,0.16754374937167568,./Data/Curated/LightLoad/Experiment9.csv,LightLoad
152,0.4884171485900879,-0.5027823448181152,-0.18794482946395874,0.3148375153541565,-0.08140286058187485,-0.010175357107073069,0.49859250569716096,0.9911994934082031,0.1638764690688217,0.6703764796257019,-0.6224924474954605,-0.14754268061369658,0.47494976688176394,0.015562310814857483,0.13766659749671817,0.5327098821289837,1.2928689271211624,0.22642214766447935,0.5339069962501526,0.0586579404771328,0.20231004059314728,0.14365210011601448,0.2651578485965729,0.34356793761253357,0.19033905863761902,0.4752490557730198,0.09219022472999536,0.3842693641781807,-0.3471592366695404,-0.09127894043922424,0.25588029623031616,0.001795649528503418,0.09935937821865082,0.2849099859595299,0.7314286008477211,0.13491365286610416,9.93593692779541,9.374496459960938,9.594464302062988,0.21996784210205078,9.6803560256958,9.750386238098145,0.18555068969726562,0.5614404678344727,0.11188551733822501,0.46327781677246094,-0.46567249298095703,-0.11791467666625977,0.34775781631469727,0.0023946762084960938,0.12090682983398438,0.34237098693847656,0.928950309753418,0.18277268550645484,./Data/Curated/LightLoad/Experiment33.csv,LightLoad
22,-0.07661445438861847,-0.10055647045373917,-0.09217676520347595,0.008379705250263214,-0.08978256583213806,-0.08619125932455063,0.00957680493593216,0.023942016065120697,0.004591983429279239,0.021547816693782806,-0.019153617322444916,-0.003591306507587433,0.015562310814857483,0.0,0.00389057956635952,0.017657237127423286,0.04070143401622772,0.006182655338299548,0.16519992053508759,0.13407529890537262,0.14604631066322327,0.011971011757850647,0.14844051003456116,0.152031809091568,0.013168111443519592,0.031124621629714966,0.004469252019449187,0.016759410500526428,-0.01915360987186432,-0.00359131395816803,0.015562295913696289,0.0,0.0038905851542949677,0.01286882534623146,0.03591302037239075,0.006041050722759947,9.710882186889648,9.677363395690918,9.68694019317627,0.009576797485351562,9.690531730651855,9.694122314453125,0.016759872436523438,0.03351879119873047,0.005550223942884008,0.023941993713378906,-0.025139808654785156,-0.004788398742675781,0.020351409912109375,0.0,0.004788398742675781,0.019153594970703125,0.04908180236816406,0.007664232267061051,./Data/Curated/Off/Experiment23.csv,Off
38,-0.07781155407428741,-0.10295066982507706,-0.09247604012489319,0.010474629700183868,-0.08978256583213806,-0.08619125932455063,0.008379705250263214,0.025139115750789642,0.005120758110167341,0.019153617322444916,-0.02274491637945175,-0.004788406193256378,0.017956510186195374,0.0,0.004788406193256378,0.014365211129188538,0.04189853370189667,0.007059743244173076,0.16639702022075653,0.1388636976480484,0.15083470940589905,0.011971011757850647,0.15322890877723694,0.15592238306999207,0.010474637150764465,0.02753332257270813,0.004385592658617708,0.016759410500526428,-0.020350709557533264,-0.003591299057006836,0.016759410500526428,0.0,0.003591299057006836,0.013168111443519592,0.03711012005805969,0.006111094594956728,9.713275909423828,9.673771858215332,9.68813705444336,0.014365196228027344,9.691728591918945,9.695320129394531,0.017955780029296875,0.039504051208496094,0.00647580842572893,0.02992725372314453,-0.02513885498046875,-0.005986213684082031,0.01915264129638672,0.0,0.005985260009765625,0.023941993713378906,0.05506610870361328,0.009711554998078131,./Data/Curated/Off/Experiment39.csv,Off
14,-0.07781155407428741,-0.10534487664699554,-0.09457096457481384,0.010773912072181702,-0.090979665517807,-0.08738835901021957,0.00957680493593216,0.02753332257270813,0.004654581977329285,0.023942016065120697,-0.015562310814857483,-0.004788406193256378,0.010773904621601105,0.0,0.004788398742675781,0.019153617322444916,0.03950432687997818,0.006438456857551269,0.16160862147808075,0.13287819921970367,0.14365209639072418,0.010773897171020508,0.1472434103488922,0.1496376097202301,0.011971011757850647,0.028730422258377075,0.004461048499704239,0.020350724458694458,-0.015562310814857483,-0.004788398742675781,0.010773912072181702,0.0,0.004788398742675781,0.015562325716018677,0.03591303527355194,0.006322823970075432,9.712079048156738,9.678560256958008,9.68933391571045,0.010773658752441406,9.691728591918945,9.695320129394531,0.01675891876220703,0.03351879119873047,0.005056838408165908,0.022745132446289062,-0.026336669921875,-0.004788398742675781,0.02154827117919922,0.0,0.004788398742675781,0.01795673370361328,0.04908180236816406,0.007093555310139242,./Data/Curated/Off/Experiment15.csv,Off
111,0.8212111592292786,-0.9145850539207458,-0.4489128291606903,0.46567222476005554,-0.12030863761901855,0.3097498416900635,0.5114613175392151,1.7357962131500244,0.4434791295568591,1.3515268564224243,-1.398213803768158,-0.5225345157086849,0.875679288059473,0.03591303527355194,0.5234323237091303,0.828094532713294,2.7497406601905823,0.6576611456769881,0.5877765417098999,-0.1173158809542656,0.14694413542747498,0.26426001638174057,0.29867666959762573,0.42766427993774414,0.16011226177215576,0.7050924226641655,0.1710100131196728,0.5805939063429832,-0.6584054753184319,-0.2029086034744978,0.45549687184393406,0.029328972101211548,0.205003522336483,0.37559038400650024,1.238999381661415,0.27312352131085693,10.220847129821777,9.121908187866211,9.530418872833252,0.408510684967041,9.660005569458008,9.81263542175293,0.40821170806884766,1.0989389419555664,0.2086213656160497,0.6296758651733398,-0.8224086761474609,-0.20410513877868652,0.6183035373687744,0.02753305435180664,0.21338343620300293,0.4162924289703369,1.4520845413208008,0.29426741196227274,./Data/Curated/HeavyLoad/Experiment52.csv,HeavyLoad
84,0.768538773059845,-1.0462661981582642,-0.395043283700943,0.6512229144573212,-0.08858546614646912,0.21697452664375305,0.5515642464160919,1.8148049712181091,0.40181184897536415,1.6915035843849182,-1.4700398445129395,-0.5210381336510181,0.9490017108619213,-0.020949259400367737,0.5126584246754646,1.1788451597094536,3.1615434288978577,0.6593837141719894,0.9014169573783875,-0.017956512048840523,0.1445499211549759,0.16250643320381641,0.25258827209472656,0.3965396583080292,0.5048772990703583,0.919373469427228,0.17671038075485773,0.6129156574606895,-0.9121908647939563,-0.18195931613445282,0.7302315486595035,0.022146370261907578,0.19393035769462585,0.4189852997660637,1.5251065222546458,0.26609212997397136,10.08078670501709,9.277531623840332,9.564835548400879,0.2873039245605469,9.673173427581787,9.81143856048584,0.26934814453125,0.8032550811767578,0.16925338064250736,0.6177034378051758,-0.5973529815673828,-0.1663970947265625,0.4309558868408203,-0.012569427490234375,0.18824458122253418,0.4294588565826416,1.2150564193725586,0.24644176423089087,./Data/Curated/HeavyLoad/Experiment25.csv,HeavyLoad
167,0.8667010068893433,-1.0558429956436157,-0.4821323752403259,0.5737106204032898,-0.07182604819536209,0.3196259140968323,0.547075092792511,1.922544002532959,0.4808818187551789,1.4041992723941803,-1.3646950125694275,-0.7341220937669277,0.6305729188024998,0.0,0.7350199222564697,0.6691793501377106,2.768894284963608,0.7847658459219445,0.628477931022644,-0.031124621629714966,0.1628057211637497,0.19393034279346466,0.30945056676864624,0.3917512595653534,0.23672667145729065,0.659602552652359,0.15704451888887772,0.434547605458647,-0.5817910227924585,-0.16160861030220985,0.4201824124902487,0.026934772729873657,0.17178397392854095,0.26276363153010607,1.0163386282511055,0.2271625503390418,10.097545623779297,9.282320022583008,9.588777542114258,0.30645751953125,9.671378135681152,9.755773305892944,0.34177231788635254,0.8152256011962891,0.1269232327117703,0.4381389617919922,-0.5219354629516602,-0.10564398765563965,0.4162914752960205,-0.007182598114013672,0.12808990478515625,0.31004905700683594,0.9600744247436523,0.17857628351909338,./Data/Curated/LightLoad/Experiment48.csv,LightLoad
66,1.013944387435913,-1.2294225692749023,-0.5222352296113968,0.7071873396635056,-0.10474632307887077,0.3911527097225189,0.6227916777133942,2.2433669567108154,0.5554453010815418,1.9093758463859558,-1.9009960889816284,-0.7832032442092896,1.1177928447723389,0.006584055721759796,0.8077437952160835,1.1016320511698723,3.8103719353675842,0.9461322708815821,0.7122750282287598,-0.24181437492370605,0.15652093291282654,0.3983353078365326,0.2885012924671173,0.40611645579338074,0.30615857243537903,0.9540894031524658,0.1815336004397331,0.7757213711738586,-0.7410054206848145,-0.22744915483053774,0.5135562658542767,0.0005985498428344727,0.20679915696382523,0.5689222142100334,1.516726791858673,0.30919924769970863,10.085575103759766,9.259574890136719,9.55855107307434,0.29897618293762207,9.665990829467773,9.79138731956482,0.2941877841949463,0.8260002136230469,0.16782351589120426,0.7386112213134766,-0.6943187713623047,-0.19931674003601074,0.49500203132629395,-0.01556253433227539,0.23493099212646484,0.5036802291870117,1.4329299926757812,0.27744957320003016,./Data/Curated/HeavyLoad/Experiment7.csv,HeavyLoad
11,-0.07541735470294952,-0.10295066982507706,-0.0933738648891449,0.00957680493593216,-0.08978256583213806,-0.08619125932455063,0.010773904621601105,0.027533315122127533,0.004564698143672662,0.020350709557533264,-0.016759410500526428,-0.004788398742675781,0.011971011757850647,0.0,0.003591306507587433,0.01675940304994583,0.03711012005805969,0.0063103118304310415,0.15562310814857483,0.13287819921970367,0.14245499670505524,0.009576797485351562,0.14604631066322327,0.14844051003456116,0.007182598114013672,0.022744908928871155,0.004462718888592411,0.016759410500526428,-0.016759410500526428,-0.004788398742675781,0.011971011757850647,0.0,0.004788398742675781,0.011971011757850647,0.033518821001052856,0.006121961934192564,9.718064308166504,9.678560256958008,9.68933391571045,0.010773658752441406,9.692925453186035,9.696516990661621,0.021547317504882812,0.039504051208496094,0.00605185613890186,0.022745132446289062,-0.027532577514648438,-0.005985260009765625,0.021547317504882812,0.0,0.005985260009765625,0.016759872436523438,0.0502777099609375,0.008623850398164042,./Data/Curated/Off/Experiment12.csv,Off
148,0.26096799969673157,-0.395043283700943,-0.18076223134994507,0.21428105235099792,-0.09816227108240128,0.002992752124555409,0.25797524757217616,0.6560112833976746,0.13083664840393772,0.4213795103132725,-0.46567223966121674,-0.14454992255195975,0.321122317109257,0.0029927492141723633,0.14036007365211844,0.28101943666115403,0.8870517499744892,0.18830400438897457,0.49320554733276367,0.02274491637945175,0.20709845423698425,0.1843535378575325,0.2621650993824005,0.32381579279899597,0.1693897545337677,0.4704606309533119,0.08092920262735655,0.3184288218617439,-0.28969840705394745,-0.08649053052067757,0.20320787653326988,0.003591306507587433,0.08649054169654846,0.23193828016519547,0.6081272289156914,0.11545404017550619,9.9371337890625,9.41759204864502,9.611522674560547,0.19393062591552734,9.66419506072998,9.725247383117676,0.21188640594482422,0.5195417404174805,0.0850093566102364,0.2717418670654297,-0.2166748046875,-0.07332277297973633,0.14335203170776367,-0.006583690643310547,0.06613993644714355,0.20560193061828613,0.4884166717529297,0.10025962071151458,./Data/Curated/LightLoad/Experiment29.csv,LightLoad
17,-0.07541735470294952,-0.10295066982507706,-0.09457096457481384,0.008379705250263214,-0.090979665517807,-0.08738835901021957,0.01197100430727005,0.027533315122127533,0.005019655143666759,0.016759410500526428,-0.02274491637945175,-0.005087679252028465,0.017657237127423286,0.0,0.004788406193256378,0.01197100430727005,0.03950432687997818,0.006999453572600965,0.15801730751991272,0.13287819921970367,0.14484919607639313,0.011970996856689453,0.14844051003456116,0.15083470940589905,0.007182598114013672,0.025139108300209045,0.004321854966046926,0.01915360987186432,-0.016759410500526428,-0.004788398742675781,0.011971011757850647,0.0,0.004788398742675781,0.014365211129188538,0.03591302037239075,0.006267481698212348,9.715670585632324,9.670180320739746,9.68813705444336,0.01795673370361328,9.690531730651855,9.695320129394531,0.02035045623779297,0.045490264892578125,0.006023776642173458,0.025139808654785156,-0.028730392456054688,-0.004788398742675781,0.023941993713378906,0.0,0.004788398742675781,0.020351409912109375,0.053870201110839844,0.008350465484343548,./Data/Curated/Off/Experiment18.csv,Off
141,0.005985504016280174,-0.181959331035614,-0.12000936269760132,0.061949968338012695,-0.08858546614646912,-0.04668693244457245,0.05267243646085262,0.1879448350518942,0.04329448349329617,0.15682021132670343,-0.17836802056990564,-0.05776011850684881,0.12060790206305683,0.0,0.06344634480774403,0.0933738665189594,0.33518823189660907,0.07500355747239484,0.36152446269989014,0.0071826050989329815,0.23942017555236816,0.23223757045343518,0.2645592987537384,0.30286651849746704,0.058657944202423096,0.35434185760095716,0.04256714512119975,0.2980781067162752,-0.22744916565716267,-0.041000694036483765,0.1864484716206789,0.001795649528503418,0.041898518800735474,0.25617958791553974,0.5255272723734379,0.057343736700918295,9.821015357971191,9.487024307250977,9.63067626953125,0.14365196228027344,9.6618013381958,9.709685325622559,0.11133003234863281,0.33399105072021484,0.06469370415590014,0.26575660705566406,-0.2621650695800781,-0.0649423599243164,0.19722270965576172,0.0011968612670898438,0.07062840461730957,0.1951282024383545,0.5279216766357422,0.10872400202474974,./Data/Curated/LightLoad/Experiment22.csv,LightLoad
109,0.7757213711738586,-0.9493009448051453,-0.4315548539161682,0.517746090888977,-0.10893617942929268,0.28401216864585876,0.4917092025279999,1.725022315979004,0.4354665424920154,1.5586252808570862,-1.298854410648346,-0.5225345212966204,0.7763198893517256,0.023343458771705627,0.5195417692884803,1.039083511568606,2.857479691505432,0.6458026201563839,0.5793967843055725,-0.18794482946395874,0.1711854189634323,0.35913024842739105,0.29628247022628784,0.41629183292388916,0.16310495138168335,0.7673416137695312,0.16368440910186074,0.6236895322799683,-0.5973533280193806,-0.181061502546072,0.41629182547330856,0.023343466222286224,0.17986439168453217,0.4438251405954361,1.2210428602993488,0.26048001363144263,10.219650268554688,9.157821655273438,9.547477960586548,0.38965630531311035,9.671976566314697,9.818321704864502,0.40132856369018555,1.06182861328125,0.20438951177849202,0.691925048828125,-0.7433996200561523,-0.21098875999450684,0.5324108600616455,0.0017957687377929688,0.2229602336883545,0.4689648151397705,1.4353246688842773,0.2912948919736489,./Data/Curated/HeavyLoad/Experiment50.csv,HeavyLoad
105,0.8427590131759644,-1.0342950820922852,-0.40372225642204285,0.6305728256702423,-0.12210428714752197,0.2522889971733093,0.590470016002655,1.8770540952682495,0.42367944426273996,1.6651672720909119,-1.1504138633608818,-0.4746504835784435,0.6757633797824383,-0.11552023887634277,0.4318541307002306,1.2333131413906813,2.8155811354517937,0.6206384373547245,0.6165069341659546,-0.03950432687997818,0.1744774430990219,0.2139817699790001,0.2867056429386139,0.37828385829925537,0.23822307586669922,0.6560112610459328,0.13935280559954916,0.4967968314886093,-0.49799393117427826,-0.15831659361720085,0.3396773375570774,0.009576812386512756,0.16639701090753078,0.33039982058107853,0.9947907626628876,0.21646890698526183,10.180145263671875,9.167398452758789,9.528324365615845,0.36092591285705566,9.66299819946289,9.816226959228516,0.3639183044433594,1.012746810913086,0.2088862354606742,0.7158660888671875,-0.7936773300170898,-0.22236180305480957,0.5713155269622803,0.0,0.22535419464111328,0.4905118942260742,1.5095434188842773,0.29185593151228406,./Data/Curated/HeavyLoad/Experiment46.csv,HeavyLoad
170,0.8858546018600464,-1.071405291557312,-0.49320554733276367,0.5781997442245483,-0.09397241845726967,0.3196259140968323,0.5662286877632141,1.9572598934173584,0.4803314635041072,1.3563152849674225,-1.3766659200191498,-0.7125742807984352,0.6640916392207146,0.0011970996856689453,0.736516275908798,0.6197990090586245,2.7329812049865723,0.7825525266810586,0.6416460275650024,-0.035913024097681046,0.16130934283137321,0.19722236692905426,0.3172317147254944,0.3968389332294464,0.24480709433555603,0.6775590516626835,0.1567844907260483,0.46208093874156475,-0.6607996411621571,-0.16998830810189247,0.4908113330602646,0.02334347367286682,0.16639700531959534,0.2956839334219694,1.1228805799037218,0.22938353468005004,10.005369186401367,9.320627212524414,9.591770648956299,0.27114343643188477,9.68694019317627,9.759065389633179,0.24630379676818848,0.6847419738769531,0.1271630910419926,0.44292736053466797,-0.532710075378418,-0.10803866386413574,0.4246714115142822,0.0029926300048828125,0.12958598136901855,0.3133413791656494,0.9756374359130859,0.17935920865521796,./Data/Curated/LightLoad/Experiment51.csv,LightLoad
77,0.7577648162841797,-1.0582371950149536,-0.3824737146496773,0.6757634803652763,-0.0736217051744461,0.22296003997325897,0.5348047763109207,1.8160020112991333,0.40719585291728505,1.5538369417190552,-1.5502456426620483,-0.5030816313810647,1.0471640112809837,-0.043694172985851765,0.5410895969253033,1.0127473447937518,3.1040825843811035,0.6660752037938641,0.7015010714530945,-0.05626374110579491,0.14095862209796906,0.19722236320376396,0.2537853717803955,0.3693056106567383,0.3321954607963562,0.7577648125588894,0.17979792698335062,0.6117185205221176,-0.7218518033623695,-0.18435353017412126,0.5374982731882483,0.032920271158218384,0.20500355027616024,0.4067149702459574,1.3335703238844872,0.2748762826096088,10.111910820007324,9.223662376403809,9.550171136856079,0.3265087604522705,9.667786598205566,9.817124843597412,0.2947859764099121,0.8882484436035156,0.1763726276858349,0.618901252746582,-0.6488285064697266,-0.19063830375671387,0.4581902027130127,0.0131683349609375,0.20949268341064453,0.4094085693359375,1.2677297592163086,0.26064425011914183,./Data/Curated/HeavyLoad/Experiment18.csv,HeavyLoad
171,0.8702923059463501,-1.0666168928146362,-0.518943190574646,0.5476737022399902,-0.06165069341659546,0.3139396905899048,0.5563526153564453,1.9369091987609863,0.47892687943475415,1.3862427175045013,-1.3934254050254822,-0.7113771736621857,0.6820482313632965,-0.016759410500526428,0.7496844036504626,0.6365583138540387,2.7796681225299835,0.7837370081315275,0.6045359373092651,-0.016759412363171577,0.14664485678076744,0.16340426914393902,0.3106476664543152,0.3965396583080292,0.20799627900123596,0.6212953496724367,0.1599614536343826,0.46567223500460386,-0.610521444119513,-0.15173253696411848,0.45878890715539455,0.025737673044204712,0.1735796071588993,0.29209262784570456,1.076193679124117,0.2322662646685976,9.996989250183105,9.284713745117188,9.576507806777954,0.2917940616607666,9.6803560256958,9.75517463684082,0.24181461334228516,0.712275505065918,0.13266146451653016,0.43215274810791016,-0.5482730865478516,-0.11941099166870117,0.4288620948791504,0.005386829376220703,0.12958598136901855,0.3025667667388916,0.9804258346557617,0.1856173815944501,./Data/Curated/LightLoad/Experiment52.csv,LightLoad
0,-0.07781155407428741,-0.10654197633266449,-0.0933738648891449,0.013168111443519592,-0.08978256583213806,-0.08619125932455063,0.008379705250263214,0.028730422258377075,0.005075158206262715,0.01795651763677597,-0.02035071700811386,-0.004788406193256378,0.015562310814857483,0.0,0.004788406193256378,0.013168111443519592,0.03830723464488983,0.007212044705470217,0.15562310814857483,0.13287819921970367,0.1412578970193863,0.008379697799682617,0.14365209639072418,0.1472434103488922,0.008379697799682617,0.022744908928871155,0.004049265785997166,0.015562310814857483,-0.022744908928871155,-0.00359131395816803,0.019153594970703125,0.0,0.004788398742675781,0.010773912072181702,0.03830721974372864,0.005905464905354797,9.716867446899414,9.678560256958008,9.68933391571045,0.010773658752441406,9.692925453186035,9.696516990661621,0.02035045623779297,0.03830718994140625,0.005809729493742424,0.027532577514648438,-0.027533531188964844,-0.004788398742675781,0.022745132446289062,0.0,0.005985260009765625,0.021547317504882812,0.05506610870361328,0.008449067772048935,./Data/Curated/Off/Experiment1.csv,Off
177,0.8463503122329712,-1.0618284940719604,-0.4991910457611084,0.562637448310852,-0.10594342648983002,0.30196869373321533,0.5443816184997559,1.9081788063049316,0.47173433285029237,1.327584832906723,-1.3778630495071411,-0.7065887805074453,0.6712742689996958,0.007182598114013672,0.7006032727658749,0.6269815601408482,2.705447882413864,0.7667074265895123,0.608127236366272,-0.04429273307323456,0.16220716759562492,0.20649990066885948,0.3148375153541565,0.39564183354377747,0.2124854028224945,0.6524199694395065,0.15443061069054992,0.4273650087416172,-0.5937620494514704,-0.1607107948511839,0.4330512546002865,0.02154780924320221,0.17866728082299232,0.24869772791862488,1.0211270581930876,0.224049162635533,10.090363502502441,9.277531623840332,9.583390712738037,0.3058590888977051,9.669581890106201,9.757868528366089,0.33249497413635254,0.8128318786621094,0.13338648256737906,0.46567249298095703,-0.5111627578735352,-0.12390017509460449,0.38726258277893066,0.011372089385986328,0.1415572166442871,0.3241152763366699,0.9768352508544922,0.18880684829739872,./Data/Curated/LightLoad/Experiment58.csv,LightLoad
37,-0.07541735470294952,-0.10295066982507706,-0.09217676520347595,0.010773904621601105,-0.08978256583213806,-0.08619125932455063,0.010773904621601105,0.027533315122127533,0.004832668944496524,0.016759417951107025,-0.023942016065120697,-0.004788398742675781,0.019153617322444916,0.0,0.004788406193256378,0.011971011757850647,0.04070143401622772,0.006609643078023142,0.16519992053508759,0.1388636976480484,0.1496376097202301,0.010773912072181702,0.15322890877723694,0.15562310814857483,0.009576812386512756,0.026336222887039185,0.00461645709092251,0.023942023515701294,-0.021547824144363403,-0.004788398742675781,0.016759425401687622,0.0,0.004788398742675781,0.019153624773025513,0.0454898476600647,0.0064451879012872625,9.716867446899414,9.674968719482422,9.68694019317627,0.011971473693847656,9.691728591918945,9.695320129394531,0.021547317504882812,0.04189872741699219,0.006545214848232883,0.03351879119873047,-0.031124114990234375,-0.005985260009765625,0.02513885498046875,0.0,0.005985260009765625,0.027533531188964844,0.06464290618896484,0.010014576622572503,./Data/Curated/Off/Experiment38.csv,Off
64,0.9792284965515137,-1.115697979927063,-0.5318120718002319,0.583885908126831,-0.08140285685658455,0.38726213574409485,0.5919663608074188,2.0949264764785767,0.5378823594919941,1.6879121661186218,-1.7465701699256897,-0.8194155395030975,0.9271546304225922,0.022146359086036682,0.8565256670117378,0.831386499106884,3.4344823360443115,0.9120797970074508,0.6105214357376099,-0.13287819921970367,0.1792658567428589,0.31214405596256256,0.28550854325294495,0.39145198464393616,0.2190694510936737,0.7433996349573135,0.15289157160100916,0.6141127382870764,-0.6045359373092651,-0.1858499012887478,0.41868603602051735,-0.023942023515701294,0.18674772419035435,0.427365014096722,1.2186486755963415,0.24714402324458407,10.098742485046387,9.230844497680664,9.586383819580078,0.35553932189941406,9.67496919631958,9.765050649642944,0.3336918354034424,0.8678979873657227,0.14239450869005504,0.6464338302612305,-0.5530605316162109,-0.15741872787475586,0.3956418037414551,0.007781505584716797,0.1556234359741211,0.4908103942871094,1.1994943618774414,0.21757712040519808,./Data/Curated/HeavyLoad/Experiment5.csv,HeavyLoad
61,0.9564836025238037,-1.036689281463623,-0.4902127981185913,0.5464764833450317,-0.02513911761343479,0.3669114112854004,0.5895721912384033,1.9931728839874268,0.5130845457561372,1.4700398445129395,-1.625662922859192,-0.7502829683944583,0.8753799544647336,-0.02753331884741783,0.8137293010950089,0.6563105434179306,3.0957027673721313,0.8595990055700453,0.5410895943641663,-0.1173158809542656,0.1801636815071106,0.2974795624613762,0.2908955067396164,0.37229835987091064,0.16879123449325562,0.6584054753184319,0.14060244877587644,0.49799396842718124,-0.5458779856562614,-0.1616086084395647,0.38426937721669674,-0.017357967793941498,0.17028760630637407,0.32770636212080717,1.0438719540834427,0.21892563041895596,9.976638793945312,9.388861656188965,9.60404109954834,0.215179443359375,9.691728591918945,9.772233724594116,0.2044050693511963,0.5877771377563477,0.12153943574298129,0.44532203674316406,-0.4489126205444336,-0.14036035537719727,0.30855226516723633,0.005985260009765625,0.12749147415161133,0.31783056259155273,0.8942346572875977,0.18130854871078975,./Data/Curated/HeavyLoad/Experiment2.csv,HeavyLoad
136,0.05267243832349777,-0.22864626348018646,-0.13766659796237946,0.090979665517807,-0.0802057534456253,-0.033518824726343155,0.08619126304984093,0.28131870180368423,0.06175629834418217,0.27892450243234634,-0.28131870180368423,-0.0825999528169632,0.19871874898672104,0.0,0.0769137293100357,0.20201077312231064,0.5602432042360306,0.11033707014743367,0.5566518902778625,0.02753331884741783,0.2298433631658554,0.20231004431843758,0.27054479718208313,0.3148375153541565,0.24181437492370605,0.5291185714304447,0.05631309435635822,0.3064578175544739,-0.2968810200691223,-0.06913258135318756,0.22774843871593475,0.001795649528503418,0.06973113492131233,0.23672668263316154,0.6033388376235962,0.0943072991572106,9.799467086791992,9.50857162475586,9.621099472045898,0.11252784729003906,9.666589736938477,9.709984540939331,0.08948254585266113,0.2908954620361328,0.06116251424571759,0.23941993713378906,-0.19991588592529297,-0.07541751861572266,0.12449836730957031,-0.005386829376220703,0.07242441177368164,0.16699552536010742,0.43933582305908203,0.0957158114319706,./Data/Curated/LightLoad/Experiment17.csv,LightLoad
26,-0.07422025501728058,-0.10654197633266449,-0.09457096457481384,0.011971011757850647,-0.090979665517807,-0.08738835901021957,0.013168103992938995,0.03232172131538391,0.0051221526270444255,0.020350709557533264,-0.023942016065120697,-0.004788406193256378,0.01915360987186432,0.0,0.004788398742675781,0.015562310814857483,0.04429272562265396,0.007016151950175109,0.16160862147808075,0.13527239859104156,0.1472434103488922,0.011971011757850647,0.15083470940589905,0.15322890877723694,0.008379712700843811,0.026336222887039185,0.004570594909732273,0.017956510186195374,-0.015562310814857483,-0.00359131395816803,0.011970996856689453,0.0,0.004788398742675781,0.013168111443519592,0.033518821001052856,0.0063624647828187915,9.713275909423828,9.672574996948242,9.68574333190918,0.0131683349609375,9.689932823181152,9.692925453186035,0.02035045623779297,0.04070091247558594,0.0063582486812280865,0.028730392456054688,-0.02513885498046875,-0.005985260009765625,0.019153594970703125,0.0,0.005985260009765625,0.022745132446289062,0.05386924743652344,0.009158348017425814,./Data/Curated/Off/Experiment27.csv,Off
83,0.7493851184844971,-0.9768342971801758,-0.3866635859012604,0.5901707112789154,-0.07242460176348686,0.22505496442317963,0.5243301540613174,1.7262194156646729,0.40441379188789467,1.722628116607666,-1.3395558297634125,-0.5180454170331359,0.8215104127302766,0.016160868108272552,0.4848258337005973,1.2378022829070687,3.0621839463710785,0.6587141944863357,0.6979097723960876,-0.0454898327589035,0.14365209639072418,0.18914192914962769,0.25677812099456787,0.38067805767059326,0.3172317147254944,0.7433996051549911,0.1784402771265262,0.6440402641892433,-0.696712713688612,-0.19542671740055084,0.5012859962880611,0.0173579603433609,0.20949262753129005,0.43454763665795326,1.3407529778778553,0.27396194638955074,10.079588890075684,9.23323917388916,9.571719408035278,0.33848023414611816,9.679757118225098,9.810540914535522,0.26904797554016113,0.8463497161865234,0.16773368897641486,0.6787567138671875,-0.6021413803100586,-0.17776918411254883,0.42437219619750977,-0.011372566223144531,0.18465304374694824,0.49410367012023926,1.280898094177246,0.24403575062463198,./Data/Curated/HeavyLoad/Experiment24.csv,HeavyLoad
150,0.2861070930957794,-0.49320554733276367,-0.18315643072128296,0.3100491166114807,-0.08559270948171616,0.008379706181585789,0.27772738691419363,0.7793126404285431,0.13674506662425798,0.6057330295443535,-0.5351040661334991,-0.15023615770041943,0.3848679084330797,0.01496376097202301,0.14245500275865197,0.4632780267857015,1.1408370956778526,0.20368617948196252,0.5027823448181152,0.0071826050989329815,0.21278467774391174,0.20560207264497876,0.2693476974964142,0.3292027413845062,0.173579603433609,0.49559973971918225,0.08333565497033256,0.34117373125627637,-0.317231722176075,-0.08978256583213806,0.22744915634393692,-0.004189848899841309,0.09606733918190002,0.24510639207437634,0.6584054534323514,0.1254342022067741,9.928754806518555,9.402029991149902,9.621099472045898,0.2190694808959961,9.670180320739746,9.730035781860352,0.19871902465820312,0.5267248153686523,0.08257456503835992,0.4273653030395508,-0.39983177185058594,-0.07302379608154297,0.32680797576904297,0.0017957687377929688,0.08379673957824707,0.3435685634613037,0.8271970748901367,0.11921363178771978,./Data/Curated/LightLoad/Experiment31.csv,LightLoad
59,-0.07302315533161163,-0.10055647045373917,-0.09217676520347595,0.008379705250263214,-0.08858546614646912,-0.08499415963888168,0.01197100430727005,0.027533315122127533,0.004895836245018286,0.019153617322444916,-0.01915360987186432,-0.004788398742675781,0.014365211129188538,-0.0011970996856689453,0.004788406193256378,0.014365211129188538,0.038307227194309235,0.006778434713038346,0.16998831927776337,0.14006079733371735,0.152031809091568,0.011971011757850647,0.15562310814857483,0.15921440720558167,0.010773912072181702,0.02992752194404602,0.004411449366214585,0.02753332257270813,-0.015562310814857483,-0.003591299057006836,0.011971011757850647,0.0,0.003591299057006836,0.023942023515701294,0.04309563338756561,0.0060356774295121365,9.720458984375,9.674968719482422,9.68813705444336,0.0131683349609375,9.691728591918945,9.696516990661621,0.023941993713378906,0.045490264892578125,0.006907783319328742,0.03232097625732422,-0.045490264892578125,-0.005985260009765625,0.0395050048828125,0.0,0.0059854984283447266,0.026335477828979492,0.07781124114990234,0.010298694626043867,./Data/Curated/Off/Experiment60.csv,Off
63,1.0007762908935547,-1.1288660764694214,-0.5315127968788147,0.5973532795906067,-0.07841010391712189,0.3902548849582672,0.6105214059352875,2.129642367362976,0.5412554549562799,1.5466542840003967,-1.6915035247802734,-0.7930793054401875,0.898424219340086,-0.004788406193256378,0.8616133332252502,0.6850409507751465,3.23815780878067,0.9087558761164549,0.6153098344802856,-0.12689268589019775,0.1735796183347702,0.30047230422496796,0.2885012924671173,0.39384618401527405,0.2214636504650116,0.7422025203704834,0.15447876376220712,0.5985504277050495,-0.5961562097072601,-0.18465280532836914,0.411503404378891,-0.016759395599365234,0.18584991618990898,0.41270051151514053,1.1947066374123096,0.24527068855965622,10.068815231323242,9.295488357543945,9.59057354927063,0.29508519172668457,9.690531730651855,9.775824546813965,0.29299068450927734,0.7733268737792969,0.14305527066238058,0.618901252746582,-0.645237922668457,-0.14365220069885254,0.5015857219696045,0.0,0.14484906196594238,0.47405219078063965,1.264139175415039,0.2259884296916073,./Data/Curated/HeavyLoad/Experiment4.csv,HeavyLoad
4,-0.07781155407428741,-0.1041477769613266,-0.0933738648891449,0.010773912072181702,-0.08978256583213806,-0.08738835901021957,0.00957680493593216,0.026336222887039185,0.004691197576630195,0.02035071700811386,-0.019153617322444916,-0.0047884006053209305,0.014365216717123985,0.0,0.004788398742675781,0.01556231826543808,0.03950433433055878,0.006771543206360157,0.15682020783424377,0.13287819921970367,0.1412578970193863,0.008379697799682617,0.14484919607639313,0.14844051003456116,0.008379697799682617,0.0239420086145401,0.004709217577045026,0.020350709557533264,-0.016759410500526428,-0.004788398742675781,0.011971011757850647,0.0,0.004788398742675781,0.015562310814857483,0.03711012005805969,0.006360490066903472,9.718064308166504,9.678560256958008,9.68933391571045,0.010773658752441406,9.692925453186035,9.696516990661621,0.021547317504882812,0.039504051208496094,0.005728169728669586,0.02513885498046875,-0.026335716247558594,-0.005985260009765625,0.02035045623779297,0.0,0.004788398742675781,0.02035045623779297,0.051474571228027344,0.008042212147754049,./Data/Curated/Off/Experiment5.csv,Off
108,0.7793126702308655,-1.0295066833496094,-0.4531026780605316,0.5764040052890778,-0.1256955862045288,0.2753331959247589,0.5039794743061066,1.8088193535804749,0.4382971420763999,1.540668785572052,-1.2689268589019775,-0.5150526571087539,0.7538742017932236,-0.04189853370189667,0.47913961252197623,1.0615291730500758,2.8095956444740295,0.6569416859823349,0.5973533391952515,-0.10654197633266449,0.1735796183347702,0.2801215946674347,0.2902969419956207,0.3977367579936981,0.19961658120155334,0.703895315527916,0.15329455133644074,0.5303156822919846,-0.6093243509531021,-0.16579847037792206,0.44352588057518005,0.014963768422603607,0.1702875792980194,0.36002810299396515,1.1396400332450867,0.24123886941090675,10.186131477355957,9.023746490478516,9.537601947784424,0.5138554573059082,9.680954933166504,9.821913242340088,0.36421823501586914,1.1623849868774414,0.20610102142255876,0.70269775390625,-0.6991071701049805,-0.19333219528198242,0.505774974822998,0.029927730560302734,0.20320749282836914,0.49949026107788086,1.4018049240112305,0.28078642901053197,./Data/Curated/HeavyLoad/Experiment49.csv,HeavyLoad
122,0.15682020783424377,-0.25498247146606445,-0.1487397849559784,0.10624268651008606,-0.08619125932455063,-0.02753331884741783,0.1843535266816616,0.4118026793003082,0.0718300253650957,0.2537853755056858,-0.2956839054822922,-0.10474632773548365,0.19093757774680853,0.005386952310800552,0.09696516930125654,0.15682020620442927,0.549469280987978,0.12566591110716868,0.547075092792511,0.015562310814857483,0.2190694510936737,0.20350714027881622,0.27413609623908997,0.31034839153289795,0.23672670125961304,0.5315127819776535,0.06652916703452466,0.2908955067396164,-0.33518823981285095,-0.09367315098643303,0.24151508882641792,0.0011970996856689453,0.08738835155963898,0.20350715517997742,0.6260837465524673,0.10856385407585663,9.860519409179688,9.50857162475586,9.610026597976685,0.1014549732208252,9.658209800720215,9.719561338424683,0.14095807075500488,0.3519477844238281,0.07803540810855543,0.2825164794921875,-0.2513914108276367,-0.08768749237060547,0.16370391845703125,-0.0011968612670898438,0.09606719017028809,0.18644928932189941,0.5339078903198242,0.11687972185418917,./Data/Curated/LightLoad/Experiment3.csv,LightLoad
10,-0.07422025501728058,-0.1041477769613266,-0.0933738648891449,0.010773912072181702,-0.08978256583213806,-0.08708908408880234,0.012868829071521759,0.02992752194404602,0.004962348858642546,0.017956510186195374,-0.019153617322444916,-0.004788406193256378,0.014365211129188538,0.0,0.0047884006053209305,0.013168109580874443,0.03711012750864029,0.006853013271319771,0.15801730751991272,0.13407529890537262,0.14245499670505524,0.008379697799682617,0.14604631066322327,0.1496376097202301,0.008379697799682617,0.0239420086145401,0.004388595748222258,0.016759410500526428,-0.020350709557533264,-0.00359131395816803,0.016759395599365234,0.0,0.0038905851542949677,0.01286882534623146,0.03711012005805969,0.006043121962001367,9.72165584564209,9.674968719482422,9.68933391571045,0.014365196228027344,9.692925453186035,9.696516990661621,0.02513885498046875,0.04668712615966797,0.006066981727345195,0.02992725372314453,-0.02992725372314453,-0.004788398742675781,0.02513885498046875,0.0,0.004788398742675781,0.02513885498046875,0.05985450744628906,0.008428633509065121,./Data/Curated/Off/Experiment11.csv,Off
55,-0.07182604819536209,-0.10295066982507706,-0.09217676520347595,0.010773904621601105,-0.08858546614646912,-0.08619125932455063,0.014365211129188538,0.031124621629714966,0.004730590963323149,0.015562310814857483,-0.02035071700811386,-0.003591306507587433,0.016759410500526428,0.0,0.004788406193256378,0.010773904621601105,0.035913027822971344,0.006374588736865038,0.16879121959209442,0.14245499670505524,0.15322890877723694,0.010773912072181702,0.15562310814857483,0.15801730751991272,0.010773912072181702,0.026336222887039185,0.004240735857737306,0.017956510186195374,-0.017956510186195374,-0.003591299057006836,0.014365211129188538,0.0,0.003591299057006836,0.014365211129188538,0.03591302037239075,0.005850160760292678,9.712079048156738,9.677363395690918,9.68813705444336,0.010773658752441406,9.691728591918945,9.695320129394531,0.01675891876220703,0.03471565246582031,0.005743463324734112,0.028730392456054688,-0.023941993713378906,-0.004788398742675781,0.019153594970703125,0.0,0.004788398742675781,0.023941993713378906,0.052672386169433594,0.008109117794239158,./Data/Curated/Off/Experiment56.csv,Off
97,0.767341673374176,-0.6787561774253845,-0.3570353388786316,0.32172083854675293,-0.10354922339320183,0.1313818246126175,0.6359598487615585,1.4460978507995605,0.35508629656395485,1.2006921768188477,-0.884657546877861,-0.3636193871498108,0.5210381597280502,-0.09816225618124008,0.28880057111382484,0.9118916057050228,2.0853497236967087,0.5099881238323477,0.568622887134552,0.008379706181585789,0.21667525172233582,0.20829554554075003,0.27653029561042786,0.3429693877696991,0.2256534993648529,0.5602431809529662,0.11020610818785138,0.4273650161921978,-0.3363853543996811,-0.11641805991530418,0.2199672944843769,0.012569546699523926,0.11133037880063057,0.31603463739156723,0.7637503705918789,0.15261880864169308,10.044873237609863,9.287108421325684,9.586982250213623,0.29987382888793945,9.683348655700684,9.781511306762695,0.26336193084716797,0.7577648162841797,0.1603825453771839,0.4908113479614258,-0.5207395553588867,-0.14604568481445312,0.3746938705444336,0.0017957687377929688,0.17447710037231445,0.31633424758911133,1.0115509033203125,0.21970059790637853,./Data/Curated/HeavyLoad/Experiment38.csv,HeavyLoad
162,1.3227964639663696,-1.3994108438491821,-0.684442400932312,0.7149684429168701,-0.07481880486011505,0.5246294736862183,0.7981669902801514,2.7222073078155518,0.7039194635847629,2.029085874557495,-2.030283033847809,-1.1103110425174236,0.9199719913303852,-0.003591306507587433,1.1237784679979086,0.9053074065595865,4.059368908405304,1.1751109940825326,0.7110779285430908,-0.19393034279346466,0.09636661969125271,0.29029696248471737,0.33099839091300964,0.4091092050075531,0.3019687235355377,0.9050082713365555,0.21695663497334416,0.6560112535953522,-0.8367734998464584,-0.22296003252267838,0.6138134673237801,0.01795649528503418,0.26096798782236874,0.39504326577298343,1.4927847534418106,0.33137336124744726,10.126276016235352,9.182960510253906,9.555258750915527,0.3722982406616211,9.663596630096436,9.776722192764282,0.34955382347106934,0.9433155059814453,0.1683452525642777,0.6069297790527344,-0.8008604049682617,-0.16190791130065918,0.6389524936676025,0.017357826232910156,0.1825580596923828,0.42437171936035156,1.407790184020996,0.24609064103090528,./Data/Curated/LightLoad/Experiment43.csv,LightLoad
120,0.05147533491253853,-0.30526071786880493,-0.1280897855758667,0.17717093229293823,-0.08619125932455063,-0.04728548228740692,0.09876081719994545,0.35673605278134346,0.06069185679776736,0.30166941531933844,-0.23702596500515938,-0.06464345008134842,0.17238251492381096,0.0011970996856689453,0.05686228256672621,0.24480713275261223,0.5386953803244978,0.1076197148226384,0.3998316824436188,0.0071826050989329815,0.22864626348018646,0.22146365838125348,0.2669534981250763,0.304063618183136,0.09576806426048279,0.3926490773446858,0.06124748226365487,0.3363853325136006,-0.22026653587818146,-0.07900865748524666,0.1412578783929348,-0.004189848899841309,0.07302314788103104,0.26336218463256955,0.556651868391782,0.09907008288698012,9.84376049041748,9.50737476348877,9.616311073303223,0.10893630981445312,9.661202430725098,9.725247383117676,0.11851310729980469,0.33638572692871094,0.06875955024195238,0.27054500579833984,-0.27054500579833984,-0.08978271484375,0.18076229095458984,0.0011973381042480469,0.08858513832092285,0.181959867477417,0.5410900115966797,0.10990852081658474,./Data/Curated/LightLoad/Experiment1.csv,LightLoad
94,0.7817068696022034,-0.851138710975647,-0.34656068682670593,0.504578024148941,-0.08499415963888168,0.16879121959209442,0.612915650010109,1.6328455805778503,0.36892083810772397,1.417367398738861,-0.8870517462491989,-0.42796354927122593,0.459088196977973,-0.1215057298541069,0.30615854263305664,1.1112088561058044,2.30441914498806,0.545439771050718,0.5614402890205383,-0.002394201699644327,0.1951274424791336,0.19752164417877793,0.28072014451026917,0.3531447649002075,0.2082955241203308,0.5638344907201827,0.12281968868631869,0.4381389245390892,-0.3639186769723892,-0.16789338365197182,0.1960252933204174,0.0011970996856689453,0.13676877319812775,0.30137015134096146,0.8020576015114784,0.19147016021015534,10.127472877502441,9.257181167602539,9.5624418258667,0.30526065826416016,9.677961826324463,9.785101890563965,0.34237098693847656,0.8702917098999023,0.16726012271152443,0.42377376556396484,-0.6332664489746094,-0.18465304374694824,0.44861340522766113,0.004189968109130859,0.19093775749206543,0.23283600807189941,1.0570402145385742,0.23546713285369839,./Data/Curated/HeavyLoad/Experiment35.csv,HeavyLoad
89,0.7398083209991455,-1.013944387435913,-0.38486791402101517,0.6290764734148979,-0.07362170144915581,0.2050035148859024,0.5348048061132431,1.7537527084350586,0.3964500372015493,1.6065093278884888,-1.5346832871437073,-0.5069722197949886,1.0277110673487186,-0.008379697799682617,0.47285483218729496,1.1336544957011938,3.141192615032196,0.6484157865921609,0.6727706789970398,-0.03950432687997818,0.1430535465478897,0.1825578734278679,0.2537853717803955,0.36750996112823486,0.30526071786880493,0.712275005877018,0.16771629657331732,0.5805939137935638,-0.7003039978444576,-0.18405425362288952,0.5162497442215681,0.007182600907981396,0.19572598673403263,0.3848679270595312,1.2808979116380215,0.2618289462440043,10.108319282531738,9.263166427612305,9.561244010925293,0.2980775833129883,9.68574333190918,9.798868894577026,0.3094503879547119,0.8451528549194336,0.1654773295556269,0.5303153991699219,-0.6117181777954102,-0.1663970947265625,0.44532108306884766,-0.010773658752441406,0.19392991065979004,0.33638548851013184,1.142033576965332,0.24017506499823496,./Data/Curated/HeavyLoad/Experiment30.csv,HeavyLoad
45,-0.07302315533161163,-0.10534487664699554,-0.09217676520347595,0.013168111443519592,-0.08858546614646912,-0.08619125932455063,0.013168103992938995,0.03232172131538391,0.005062450043886198,0.02274491637945175,-0.02274491637945175,-0.004788398742675781,0.01795651763677597,0.0,0.004788398742675781,0.01795651763677597,0.0454898327589035,0.007001039503378143,0.16759411990642548,0.14245499670505524,0.15083470940589905,0.008379712700843811,0.15442600846290588,0.15682020783424377,0.010773912072181702,0.02513912320137024,0.004326164138733058,0.016759410500526428,-0.014365211129188538,-0.003591299057006836,0.010773912072181702,0.0,0.0035913027822971344,0.013168107718229294,0.031124621629714966,0.005926368165126586,9.712079048156738,9.670180320739746,9.68694019317627,0.016759872436523438,9.690531730651855,9.694122314453125,0.01795673370361328,0.04189872741699219,0.0055132423899029994,0.023941993713378906,-0.028730392456054688,-0.004788398742675781,0.023941993713378906,0.0,0.004788398742675781,0.019153594970703125,0.052672386169433594,0.007817449666182018,./Data/Curated/Off/Experiment46.csv,Off
114,0.8092401623725891,-0.9373299479484558,-0.4456207826733589,0.4917091652750969,-0.14185645431280136,0.29867666959762573,0.5105634927749634,1.746570110321045,0.42598703981410374,1.2318167388439178,-1.3239935338497162,-0.4498106334358454,0.8741829004138708,0.06823477149009705,0.46537297451868653,0.7664437643252313,2.555810272693634,0.6006349892110389,0.6189011335372925,-0.21547815203666687,0.15143325924873352,0.3669114112854004,0.29867666959762573,0.4192845821380615,0.19961655139923096,0.8343792855739594,0.16841991331550932,0.5793968066573143,-0.6607996746897697,-0.19273323006927967,0.4680664446204901,0.021547824144363403,0.19422961864620447,0.38516718801110983,1.240196481347084,0.25502291812715966,10.236409187316895,9.10993766784668,9.496002435684204,0.3860647678375244,9.68813705444336,9.852738857269287,0.3836703300476074,1.1264715194702148,0.23355172202459926,0.7074871063232422,-0.8212108612060547,-0.21607637405395508,0.6051344871520996,0.023343563079833984,0.2322373390197754,0.4752497673034668,1.5286979675292969,0.3135461958621318,./Data/Curated/HeavyLoad/Experiment55.csv,HeavyLoad
166,0.8583213090896606,-1.048660397529602,-0.4958990216255188,0.5527613759040833,-0.09636661782860756,0.3097498416900635,0.5485714673995972,1.9069817066192627,0.4826964632045285,1.351526826620102,-1.3503297567367554,-0.6970119513571262,0.6533178053796291,0.013766659423708916,0.7326256968080997,0.6189011298120022,2.7018565833568573,0.7813192768560355,0.6212953329086304,-0.04908113554120064,0.16639702022075653,0.21547815576195717,0.3130418658256531,0.395043283700943,0.22625204920768738,0.670376468449831,0.15771805958673704,0.4429273009300232,-0.6009446289390326,-0.15891513228416443,0.4420294966548681,0.026934772729873657,0.1744774803519249,0.2684498205780983,1.0438719298690557,0.22873631457459304,10.093954086303711,9.308655738830566,9.580099105834961,0.27144336700439453,9.674968719482422,9.751583099365234,0.34237098693847656,0.7852983474731445,0.13132366166596765,0.46088314056396484,-0.5051774978637695,-0.12599444389343262,0.3791830539703369,0.01795673370361328,0.13646984100341797,0.3244132995605469,0.9660606384277344,0.18572744848469222,./Data/Curated/LightLoad/Experiment47.csv,LightLoad
5,-0.07661445438861847,-0.10534487664699554,-0.09457096457481384,0.010773912072181702,-0.090979665517807,-0.08738835901021957,0.010773904621601105,0.028730422258377075,0.004763374609377833,0.020350709557533264,-0.017956510186195374,-0.004788398742675781,0.013168111443519592,0.0,0.004788406193256378,0.015562303364276886,0.03830721974372864,0.006675112267569009,0.15442600846290588,0.13168109953403473,0.1412578970193863,0.009576797485351562,0.14484919607639313,0.1472434103488922,0.007182598114013672,0.022744908928871155,0.004480897612582744,0.02154780924320221,-0.017956510186195374,-0.004788398742675781,0.013168111443519592,0.0,0.004788398742675781,0.016759410500526428,0.03950431942939758,0.006425649615122758,9.714473724365234,9.671378135681152,9.68694019317627,0.015562057495117188,9.690531730651855,9.695320129394531,0.019153594970703125,0.04309558868408203,0.006142788506369223,0.03112506866455078,-0.028730392456054688,-0.005985260009765625,0.022745132446289062,0.0,0.005985260009765625,0.025139808654785156,0.05985546112060547,0.00898311035319352,./Data/Curated/Off/Experiment6.csv,Off
144,0.1975216418504715,-0.24420857429504395,-0.1173158809542656,0.12689269334077835,-0.08499415963888168,-0.04908113554120064,0.24660277739167213,0.44173021614551544,0.054485763914610415,0.24660277366638184,-0.29568391293287277,-0.0347159206867218,0.26096799224615097,-0.0047884006053209305,0.03740940196439624,0.2091933717019856,0.5422866865992546,0.0679319417265297,0.3818751573562622,0.16160862147808075,0.2513911724090576,0.08978255093097687,0.2693476974964142,0.2908954918384552,0.090979665517807,0.22026653587818146,0.033792571310874965,0.1759738177061081,-0.18195931613445282,-0.019153624773025513,0.1628056913614273,0.0,0.019153624773025513,0.15682019293308258,0.3579331338405609,0.047322692888366394,9.821015357971191,9.489418029785156,9.645041465759277,0.1556234359741211,9.670180320739746,9.697713851928711,0.12330150604248047,0.33159732818603516,0.05215423243375004,0.31005001068115234,-0.33159732818603516,-0.03232121467590332,0.29927611351013184,0.0023946762084960938,0.032621145248413086,0.27742886543273926,0.6416473388671875,0.08101699693405236,./Data/Curated/LightLoad/Experiment25.csv,LightLoad
41,-0.07302315533161163,-0.10773907601833344,-0.0933738648891449,0.014365211129188538,-0.08978256583213806,-0.08619125932455063,0.013168103992938995,0.0347159206867218,0.005558809626361489,0.022744908928871155,-0.027533315122127533,-0.004788406193256378,0.022744908928871155,0.0,0.004788406193256378,0.017956502735614777,0.05027822405099869,0.00810848931594797,0.16879121959209442,0.13766659796237946,0.1496376097202301,0.011971011757850647,0.15322890877723694,0.15682020783424377,0.011971011757850647,0.031124621629714966,0.004807332271758525,0.02513912320137024,-0.02154780924320221,-0.004788398742675781,0.016759410500526428,0.0,0.004788398742675781,0.020350724458694458,0.04668693244457245,0.007189334161146598,9.726444244384766,9.6618013381958,9.68813705444336,0.026335716247558594,9.691728591918945,9.696516990661621,0.02992725372314453,0.06464290618896484,0.008870696020470699,0.04788398742675781,-0.04668617248535156,-0.008378982543945312,0.03830718994140625,0.0,0.007182121276855469,0.040701866149902344,0.09457015991210938,0.014470665462959005,./Data/Curated/Off/Experiment42.csv,Off
163,1.3287819623947144,-1.3551181554794312,-0.7032967358827591,0.6518214195966721,-0.10175357013940811,0.5198410153388977,0.8089409470558167,2.6839001178741455,0.6935463510881177,1.90458744764328,-2.0554221868515015,-1.0513538345694542,1.0040683522820473,-0.0173579603433609,1.116595819592476,0.7879916280508041,3.9600096344947815,1.149892586489935,0.7194576263427734,-0.17477671802043915,0.09786299429833889,0.27263971231877804,0.32381579279899597,0.41359833627939224,0.3058592900633812,0.8942343443632126,0.21537538059627204,0.6117185205221176,-0.8176198452711105,-0.21158756967633963,0.6060322755947709,0.017956510186195374,0.25977088138461113,0.3519476391375065,1.4293383657932281,0.3315178512215904,10.144232749938965,9.14345645904541,9.544185876846313,0.4007294178009033,9.689932823181152,9.77791976928711,0.36631298065185547,1.0007762908935547,0.17027212246314408,0.6117191314697266,-0.8427591323852539,-0.18674755096435547,0.6560115814208984,0.02094888687133789,0.18704700469970703,0.42467212677001953,1.4544782638549805,0.25946272237477175,./Data/Curated/LightLoad/Experiment44.csv,LightLoad
